Tiempo,acc X,acc Y,acc Z,giro X,giro Y,giro Z,temperatura
1.9488308429718018,-1.647211,-3.227384,9.733628,-0.044499,-0.003464,-0.012257,26.088821
2.0553908348083496,-1.70946,-3.342306,10.120291,-0.0429,-0.004263,-0.01279,26.088821
2.165715456008911,-1.705869,-3.354277,10.128671,-0.0437,-0.003997,-0.012524,26.100585
2.276029109954834,-1.705869,-3.361459,10.117897,-0.044233,-0.00373,-0.012524,26.106468
2.3826653957366943,-1.707066,-3.354277,10.135853,-0.045299,-0.00373,-0.01279,26.109409
2.4930641651153564,-1.704672,-3.350685,10.13705,-0.043966,-0.004263,-0.012524,26.106468
2.603126049041748,-1.70946,-3.354277,10.129868,-0.043433,-0.003464,-0.01279,26.118232
2.7110302448272705,-1.707066,-3.356671,10.141839,-0.045299,-0.003997,-0.01279,26.11235
2.8210806846618652,-1.704672,-3.355474,10.134656,-0.045299,-0.003997,-0.012524,26.11235
2.9310648441314697,-1.70108,-3.355474,10.141839,-0.0429,-0.00373,-0.011991,26.115291
3.0380327701568604,-1.710657,-3.348291,10.13346,-0.044233,-0.003464,-0.012524,26.118232
3.1486778259277344,-1.708263,-3.35308,10.141839,-0.045565,-0.003464,-0.013057,26.121173
3.258995771408081,-1.704672,-3.355474,10.149022,-0.045299,-0.003997,-0.012524,26.121173
3.3665459156036377,-1.704672,-3.357868,10.139445,-0.044233,-0.004263,-0.012257,26.115291
3.476034164428711,-1.704672,-3.359065,10.138248,-0.043966,-0.00373,-0.012524,26.121173
3.5868523120880127,-1.713051,-3.347094,10.131065,-0.044766,-0.00373,-0.012524,26.129999
3.693812847137451,-1.705869,-3.355474,10.134656,-0.045299,-0.003997,-0.012524,26.124116
3.8041255474090576,-1.711854,-3.348291,10.131065,-0.044499,-0.003997,-0.012257,26.127058
3.9146909713745117,-1.70946,-3.357868,10.129868,-0.052493,-0.002931,-0.01359,26.127058
4.021218776702881,-1.708263,-3.365051,10.132262,-0.043966,-0.004263,-0.012257,26.124116
4.132112979888916,-1.705869,-3.371036,10.129868,-0.042101,-0.003997,-0.012257,26.11235
4.242033004760742,-1.702277,-3.363853,10.141839,-0.045032,-0.003464,-0.012524,26.127058
4.352461576461792,-1.704672,-3.363853,10.135853,-0.044233,-0.004263,-0.012524,26.118232
4.46002459526062,-1.70946,-3.363853,10.131065,-0.044233,-0.003997,-0.011991,26.127058
4.570138454437256,-1.708263,-3.35308,10.131065,-0.044766,-0.003198,-0.012524,26.118232
4.680050849914551,-1.70946,-3.367445,10.13705,-0.044499,-0.00373,-0.01279,26.121173
4.787200450897217,-1.713051,-3.362656,10.143036,-0.044499,-0.003997,-0.01279,26.121173
4.897215366363525,-1.702277,-3.360262,10.134656,-0.044499,-0.003464,-0.012524,26.13294
5.00814151763916,-1.705869,-3.366248,10.129868,-0.044499,-0.003464,-0.012257,26.129999
5.1152989864349365,-1.705869,-3.351882,10.131065,-0.044233,-0.003997,-0.012524,26.127058
5.225731372833252,-1.692701,-3.351882,10.131065,-0.044499,-0.003997,-0.012257,26.124116
5.336036920547485,-1.70946,-3.347094,10.139445,-0.044499,-0.003464,-0.013057,26.129999
5.442748785018921,-1.708263,-3.356671,10.138248,-0.044233,-0.003464,-0.011724,26.135881
5.552674055099487,-1.70108,-3.365051,10.134656,-0.043966,-0.003997,-0.012257,26.127058
5.663214206695557,-1.708263,-3.355474,10.132262,-0.044499,-0.00373,-0.01279,26.127058
5.770813941955566,-1.70108,-3.35308,10.132262,-0.045299,-0.002931,-0.012524,26.121173
5.880575180053711,-1.704672,-3.368642,10.129868,-0.045032,-0.00373,-0.012524,26.115291
5.991030693054199,-1.710657,-3.359065,10.13346,-0.044766,-0.00373,-0.01279,26.127058
6.09807014465332,-1.704672,-3.357868,10.131065,-0.044499,-0.003464,-0.012257,26.127058
6.208360433578491,-1.708263,-3.360262,10.131065,-0.044233,-0.003997,-0.013057,26.135881
6.318708896636963,-1.698686,-3.357868,10.139445,-0.044233,-0.003464,-0.01279,26.135881
6.425431489944458,-1.716643,-3.365051,10.129868,-0.045032,-0.003464,-0.01279,26.141763
6.536198616027832,-1.713051,-3.357868,10.147825,-0.044766,-0.003997,-0.012257,26.135881
6.646305799484253,-1.707066,-3.363853,10.128671,-0.043966,-0.004263,-0.012257,26.144704
6.75387978553772,-1.703474,-3.365051,10.134656,-0.044233,-0.003198,-0.01279,26.147645
6.863996982574463,-1.703474,-3.356671,10.128671,-0.045299,-0.003464,-0.012257,26.138822
6.9744768142700195,-1.703474,-3.363853,10.12508,-0.044766,-0.00373,-0.013057,26.138822
7.081650733947754,-1.713051,-3.357868,10.139445,-0.043433,-0.00373,-0.012257,26.124116
7.1918110847473145,-1.711854,-3.359065,10.134656,-0.044766,-0.00373,-0.012257,26.129999
7.302223443984985,-1.705869,-3.354277,10.128671,-0.044766,-0.003464,-0.012524,26.144704
7.412441730499268,-1.714248,-3.362656,10.141839,-0.044233,-0.003997,-0.012524,26.138822
7.5193750858306885,-1.714248,-3.35308,10.146627,-0.043966,-0.003997,-0.012524,26.147645
7.629989385604858,-1.70946,-3.360262,10.120291,-0.044766,-0.003464,-0.012524,26.144704
7.739889860153198,-1.697489,-3.35308,10.13346,-0.044233,-0.003997,-0.012257,26.144704
7.847239017486572,-1.704672,-3.354277,10.140642,-0.044233,-0.004263,-0.01279,26.138822
7.957266330718994,-1.70946,-3.365051,10.140642,-0.045299,-0.00373,-0.011724,26.141763
8.068223714828491,-1.707066,-3.356671,10.143036,-0.044766,-0.003997,-0.012524,26.147645
8.174821376800537,-1.711854,-3.35308,10.119094,-0.043966,-0.003997,-0.012257,26.141763
8.285387754440308,-1.708263,-3.35308,10.14543,-0.043966,-0.00373,-0.012524,26.147645
8.395263195037842,-1.703474,-3.355474,10.13346,-0.044766,-0.003464,-0.012257,26.144704
8.502831220626831,-1.704672,-3.355474,10.13346,-0.044233,-0.003464,-0.012257,26.141763
8.612812280654907,-1.708263,-3.355474,10.138248,-0.044766,-0.00373,-0.013057,26.138822
8.72380018234253,-1.703474,-3.365051,10.132262,-0.044233,-0.00373,-0.012257,26.144704
8.830602884292603,-1.707066,-3.363853,10.13705,-0.044499,-0.00373,-0.012257,26.141763
8.941074848175049,-1.70108,-3.354277,10.132262,-0.045032,-0.003464,-0.013057,26.147645
9.050431966781616,-1.710657,-3.360262,10.138248,-0.045032,-0.003198,-0.01279,26.150587
9.157959461212158,-1.699883,-3.359065,10.127473,-0.044233,-0.003997,-0.012257,26.15941
9.268080711364746,-1.703474,-3.365051,10.129868,-0.044766,-0.003997,-0.012524,26.153528
9.378950357437134,-1.702277,-3.359065,10.13705,-0.044499,-0.00373,-0.012257,26.153528
9.486034631729126,-1.715445,-3.360262,10.126276,-0.044233,-0.00373,-0.01279,26.144704
9.596045732498169,-1.715445,-3.359065,10.121488,-0.045032,-0.00373,-0.011724,26.144704
9.706062078475952,-1.720234,-3.356671,10.139445,-0.044233,-0.003198,-0.01279,26.156469
9.813071727752686,-1.70946,-3.359065,10.138248,-0.044499,-0.004263,-0.012524,26.15941
9.92405104637146,-1.699883,-3.359065,10.132262,-0.044766,-0.00373,-0.013057,26.162351
10.034080266952515,-1.705869,-3.359065,10.134656,-0.044499,-0.003464,-0.012257,26.147645
10.141114950180054,-1.714248,-3.354277,10.13705,-0.044499,-0.00373,-0.012524,26.15941
10.251874685287476,-1.703474,-3.365051,10.13705,-0.044233,-0.00373,-0.012524,26.162351
10.362070083618164,-1.708263,-3.362656,10.13705,-0.045299,-0.003464,-0.013057,26.147645
10.472859382629395,-1.704672,-3.354277,10.126276,-0.044233,-0.003997,-0.012524,26.144704
10.579311847686768,-1.708263,-3.35308,10.134656,-0.044233,-0.003997,-0.012524,26.156469
10.690026044845581,-1.702277,-3.354277,10.13705,-0.044766,-0.003997,-0.01279,26.162351
10.799849510192871,-1.70946,-3.356671,10.126276,-0.044499,-0.00373,-0.012257,26.156469
10.907041549682617,-1.697489,-3.359065,10.13346,-0.043167,-0.003464,-0.012257,26.147645
11.017887353897095,-1.711854,-3.363853,10.128671,-0.043966,-0.00373,-0.012257,26.156469
11.128060579299927,-1.704672,-3.374627,10.134656,-0.044766,-0.003997,-0.013057,26.156469
11.234904527664185,-1.714248,-3.357868,10.129868,-0.044499,-0.004263,-0.011991,26.150587
11.344806909561157,-1.713051,-3.361459,10.138248,-0.044233,-0.00373,-0.01279,26.153528
11.455897331237793,-1.705869,-3.359065,10.134656,-0.044499,-0.00373,-0.012524,26.15941
11.562489032745361,-1.711854,-3.365051,10.144233,-0.045299,-0.00373,-0.012524,26.156469
11.67285966873169,-1.702277,-3.348291,10.122685,-0.044499,-0.003997,-0.012524,26.156469
11.783039093017578,-1.702277,-3.363853,10.132262,-0.044233,-0.00373,-0.013057,26.165292
11.89035177230835,-1.704672,-3.350685,10.127473,-0.044233,-0.00373,-0.012257,26.156469
12.001080513000488,-1.707066,-3.363853,10.147825,-0.044766,-0.002931,-0.01279,26.153528
12.111043691635132,-1.705869,-3.369839,10.127473,-0.044499,-0.003198,-0.013057,26.15941
12.218063592910767,-1.704672,-3.362656,10.13346,-0.043966,-0.003464,-0.01279,26.156469
12.328514575958252,-1.693898,-3.356671,10.139445,-0.043966,-0.003997,-0.01279,26.165292
12.439038038253784,-1.705869,-3.349488,10.128671,-0.044499,-0.004263,-0.012257,26.15941
12.54603910446167,-1.704672,-3.357868,10.134656,-0.045032,-0.003997,-0.012257,26.153528
12.65658187866211,-1.697489,-3.356671,10.144233,-0.044499,-0.003997,-0.012257,26.150587
12.767027616500854,-1.704672,-3.361459,10.135853,-0.044233,-0.003198,-0.011724,26.15941
12.873162508010864,-1.699883,-3.355474,10.13346,-0.044233,-0.004263,-0.012257,26.150587
12.983603715896606,-1.715445,-3.356671,10.12508,-0.045032,-0.003997,-0.012524,26.156469
13.094367504119873,-1.720234,-3.359065,10.121488,-0.044766,-0.003997,-0.012524,26.144704
13.204922914505005,-1.714248,-3.361459,10.131065,-0.043966,-0.004263,-0.01279,26.147645
13.311531782150269,-1.715445,-3.356671,10.129868,-0.044499,-0.004263,-0.013057,26.15941
13.422399520874023,-1.711854,-3.365051,10.121488,-0.044766,-0.00373,-0.013057,26.147645
13.532074451446533,-1.715445,-3.357868,10.134656,-0.044499,-0.003464,-0.011991,26.15941
13.639395236968994,-1.704672,-3.361459,10.13705,-0.044233,-0.00453,-0.011991,26.165292
13.750172138214111,-1.707066,-3.354277,10.127473,-0.043966,-0.003997,-0.012257,26.15941
13.860046863555908,-1.703474,-3.362656,10.13346,-0.044766,-0.003198,-0.012257,26.165292
13.967041492462158,-1.719037,-3.372233,10.127473,-0.045299,-0.003198,-0.012524,26.153528
14.077035903930664,-1.703474,-3.360262,10.134656,-0.044233,-0.00373,-0.01279,26.162351
14.188064098358154,-1.708263,-3.355474,10.13705,-0.044233,-0.00373,-0.012257,26.171175
14.29483962059021,-1.714248,-3.362656,10.126276,-0.044766,-0.00373,-0.01279,26.147645
14.405534505844116,-1.715445,-3.360262,10.141839,-0.044233,-0.00373,-0.012257,26.153528
14.515580415725708,-1.702277,-3.349488,10.127473,-0.044499,-0.003464,-0.012257,26.153528
14.622214555740356,-1.704672,-3.356671,10.140642,-0.044233,-0.00373,-0.012257,26.156469
14.732988595962524,-1.713051,-3.35308,10.139445,-0.044233,-0.003198,-0.011991,26.150587
14.843410730361938,-1.702277,-3.362656,10.132262,-0.044499,-0.003464,-0.012257,26.156469
14.95003366470337,-1.707066,-3.354277,10.13705,-0.044499,-0.003997,-0.012257,26.162351
15.06109094619751,-1.710657,-3.356671,10.138248,-0.044766,-0.003464,-0.01279,26.168233
15.171420097351074,-1.697489,-3.360262,10.131065,-0.044499,-0.003464,-0.01279,26.171175
15.278165817260742,-1.70946,-3.362656,10.12508,-0.044499,-0.003997,-0.012257,26.162351
15.38843822479248,-1.702277,-3.361459,10.139445,-0.0437,-0.004263,-0.012524,26.162351
15.499003171920776,-1.707066,-3.361459,10.131065,-0.044499,-0.00373,-0.011991,26.168233
15.605957984924316,-1.703474,-3.362656,10.127473,-0.044499,-0.003997,-0.011991,26.174116
15.716468811035156,-1.702277,-3.365051,10.128671,-0.044499,-0.003464,-0.012524,26.168233
15.826036930084229,-1.70946,-3.366248,10.138248,-0.044499,-0.003997,-0.012524,26.174116
15.93368935585022,-1.696292,-3.356671,10.140642,-0.044233,-0.004263,-0.011991,26.177057
16.04403042793274,-1.707066,-3.357868,10.144233,-0.044233,-0.003464,-0.013057,26.177057
16.15459704399109,-1.702277,-3.356671,10.131065,-0.045032,-0.00373,-0.01279,26.177057
16.264477968215942,-1.707066,-3.35308,10.134656,-0.044499,-0.00373,-0.012524,26.165292
16.371213912963867,-1.704672,-3.365051,10.135853,-0.0437,-0.00453,-0.012524,26.171175
16.481483697891235,-1.707066,-3.367445,10.132262,-0.044766,-0.004796,-0.012524,26.165292
16.592519760131836,-1.707066,-3.349488,10.129868,-0.045032,-0.003997,-0.011991,26.171175
16.699418306350708,-1.70108,-3.367445,10.129868,-0.044233,-0.003464,-0.011724,26.171175
16.810494422912598,-1.705869,-3.363853,10.127473,-0.044233,-0.003464,-0.012524,26.156469
16.920047521591187,-1.697489,-3.362656,10.139445,-0.044233,-0.004263,-0.01279,26.171175
17.02726650238037,-1.710657,-3.362656,10.132262,-0.044766,-0.00373,-0.011991,26.168233
17.137555837631226,-1.703474,-3.363853,10.134656,-0.044233,-0.003464,-0.012257,26.171175
17.24774980545044,-1.699883,-3.363853,10.13705,-0.043966,-0.004263,-0.012257,26.174116
17.35477375984192,-1.703474,-3.355474,10.129868,-0.044499,-0.003997,-0.012257,26.177057
17.46579933166504,-1.710657,-3.363853,10.13346,-0.045032,-0.003464,-0.011991,26.171175
17.575328826904297,-1.711854,-3.368642,10.128671,-0.045032,-0.00373,-0.012524,26.171175
17.682353019714355,-1.708263,-3.362656,10.139445,-0.044766,-0.003997,-0.012257,26.174116
17.793380975723267,-1.707066,-3.360262,10.123883,-0.044766,-0.003997,-0.01279,26.174116
17.90275740623474,-1.708263,-3.361459,10.131065,-0.044233,-0.003464,-0.011991,26.174116
18.010749340057373,-1.696292,-3.360262,10.128671,-0.044233,-0.00373,-0.011991,26.177057
18.120776891708374,-1.699883,-3.359065,10.111911,-0.044499,-0.00373,-0.012257,26.179998
18.23080277442932,-1.708263,-3.366248,10.139445,-0.044766,-0.003198,-0.012524,26.177057
18.33780860900879,-1.715445,-3.35308,10.13705,-0.045032,-0.003464,-0.012257,26.182939
18.448522329330444,-1.708263,-3.350685,10.140642,-0.044233,-0.004263,-0.012524,26.179998
18.559083700180054,-1.710657,-3.356671,10.13346,-0.044233,-0.00373,-0.012524,26.171175
18.668551921844482,-1.702277,-3.356671,10.128671,-0.045032,-0.003997,-0.01279,26.171175
18.776078701019287,-1.70108,-3.342306,10.138248,-0.045565,-0.003198,-0.01279,26.179998
18.88652515411377,-1.704672,-3.369839,10.121488,-0.044233,-0.003997,-0.012524,26.171175
18.996702194213867,-1.713051,-3.35308,10.120291,-0.043966,-0.004796,-0.012524,26.15941
19.10384249687195,-1.702277,-3.360262,10.139445,-0.0437,-0.003997,-0.01279,26.177057
19.214035987854004,-1.704672,-3.356671,10.131065,-0.045299,-0.003198,-0.012524,26.171175
19.325040578842163,-1.704672,-3.363853,10.139445,-0.045032,-0.003997,-0.012257,26.179998
19.43195605278015,-1.70108,-3.360262,10.119094,-0.043966,-0.004263,-0.012257,26.174116
19.542118072509766,-1.697489,-3.356671,10.135853,-0.043966,-0.00373,-0.01279,26.171175
19.652539253234863,-1.714248,-3.359065,10.129868,-0.044766,-0.003198,-0.012524,26.171175
19.76004958152771,-1.711854,-3.359065,10.13346,-0.044499,-0.00373,-0.012524,26.174116
19.870063304901123,-1.710657,-3.357868,10.131065,-0.043966,-0.004263,-0.01279,26.179998
19.9800386428833,-1.713051,-3.355474,10.129868,-0.044766,-0.003198,-0.012524,26.179998
20.087042093276978,-1.707066,-3.357868,10.129868,-0.045565,-0.003198,-0.01279,26.171175
20.19756531715393,-1.70946,-3.365051,10.141839,-0.044766,-0.003997,-0.012257,26.174116
20.308130979537964,-1.711854,-3.359065,10.126276,-0.0437,-0.00453,-0.012257,26.182939
20.41458296775818,-1.710657,-3.354277,10.132262,-0.044499,-0.00373,-0.012257,26.179998
20.525147914886475,-1.703474,-3.360262,10.128671,-0.045032,-0.003464,-0.012524,26.174116
20.63505244255066,-1.715445,-3.365051,10.115503,-0.045565,-0.003198,-0.012257,26.18588
20.74304223060608,-1.705869,-3.357868,10.12508,-0.043966,-0.003997,-0.012524,26.188823
20.853076457977295,-1.713051,-3.355474,10.12508,-0.043966,-0.00373,-0.011724,26.188823
20.963578462600708,-1.70108,-3.355474,10.131065,-0.044766,-0.003198,-0.012524,26.179998
21.070096492767334,-1.702277,-3.362656,10.141839,-0.045299,-0.003464,-0.012524,26.188823
21.18004274368286,-1.696292,-3.365051,10.132262,-0.045299,-0.00373,-0.012524,26.182939
21.29108500480652,-1.702277,-3.361459,10.138248,-0.0437,-0.00373,-0.012524,26.194705
21.398072004318237,-1.702277,-3.360262,10.132262,-0.044499,-0.004263,-0.012524,26.194705
21.508605480194092,-1.722628,-3.361459,10.13346,-0.045032,-0.003198,-0.012257,26.179998
21.61874508857727,-1.715445,-3.356671,10.13705,-0.044499,-0.00453,-0.011991,26.200588
21.7290678024292,-1.702277,-3.35308,10.122685,-0.044499,-0.00453,-0.012257,26.191764
21.836188077926636,-1.70946,-3.357868,10.134656,-0.045032,-0.003464,-0.011724,26.191764
21.946608066558838,-1.70946,-3.360262,10.134656,-0.044499,-0.00373,-0.012524,26.188823
22.05720353126526,-1.711854,-3.355474,10.128671,-0.044499,-0.003198,-0.011991,26.182939
22.163267850875854,-1.704672,-3.366248,10.13705,-0.043966,-0.003997,-0.012257,26.179998
22.274068593978882,-1.707066,-3.356671,10.12508,-0.044499,-0.00373,-0.013057,26.18588
22.384039163589478,-1.702277,-3.35308,10.13346,-0.045299,-0.003464,-0.01279,26.174116
22.492010354995728,-1.702277,-3.356671,10.134656,-0.044499,-0.00373,-0.012524,26.177057
22.602200031280518,-1.711854,-3.359065,10.134656,-0.044233,-0.003997,-0.011991,26.177057
22.71199131011963,-1.708263,-3.357868,10.121488,-0.044233,-0.003997,-0.01279,26.18588
22.819058656692505,-1.708263,-3.363853,10.14543,-0.045032,-0.00373,-0.012524,26.188823
22.929049968719482,-1.70946,-3.356671,10.132262,-0.044766,-0.004263,-0.012524,26.188823
23.040040969848633,-1.704672,-3.360262,10.128671,-0.044766,-0.003997,-0.012257,26.18588
23.147248029708862,-1.70946,-3.359065,10.120291,-0.044499,-0.003464,-0.012524,26.182939
23.257368087768555,-1.703474,-3.357868,10.117897,-0.044499,-0.00373,-0.012257,26.179998
23.367656469345093,-1.70946,-3.357868,10.126276,-0.044499,-0.003198,-0.012257,26.179998
23.47466516494751,-1.704672,-3.357868,10.126276,-0.043966,-0.003997,-0.013057,26.182939
23.585047960281372,-1.703474,-3.362656,10.132262,-0.044766,-0.00373,-0.013057,26.174116
23.695769548416138,-1.715445,-3.356671,10.135853,-0.044233,-0.00373,-0.012524,26.182939
23.802248001098633,-1.710657,-3.362656,10.139445,-0.044233,-0.00373,-0.012524,26.197647
23.912814378738403,-1.704672,-3.360262,10.14543,-0.044766,-0.003997,-0.01279,26.194705
24.023660898208618,-1.70946,-3.362656,10.131065,-0.044766,-0.003997,-0.012257,26.18588
24.130077600479126,-1.70946,-3.356671,10.128671,-0.044499,-0.003464,-0.012257,26.18588
24.24062204360962,-1.708263,-3.355474,10.131065,-0.044233,-0.00373,-0.01279,26.18588
24.351063013076782,-1.708263,-3.362656,10.13705,-0.045032,-0.00373,-0.01279,26.18588
24.458237171173096,-1.704672,-3.361459,10.126276,-0.044766,-0.003464,-0.01279,26.188823
24.568060636520386,-1.711854,-3.355474,10.140642,-0.044766,-0.003997,-0.012524,26.182939
24.67811417579651,-1.70108,-3.365051,10.131065,-0.044499,-0.003464,-0.01279,26.18588
24.786044359207153,-1.705869,-3.357868,10.129868,-0.045299,-0.003464,-0.01279,26.194705
24.895944833755493,-1.713051,-3.361459,10.123883,-0.045299,-0.003464,-0.012257,26.18588
25.00608253479004,-1.702277,-3.35308,10.132262,-0.0437,-0.00453,-0.012524,26.18588
25.117255210876465,-1.703474,-3.366248,10.141839,-0.044233,-0.003997,-0.012524,26.179998
25.2240469455719,-1.707066,-3.362656,10.13705,-0.044499,-0.004263,-0.013057,26.182939
25.334294080734253,-1.708263,-3.361459,10.128671,-0.044499,-0.003997,-0.012257,26.191764
25.444692611694336,-1.715445,-3.354277,10.131065,-0.044766,-0.00373,-0.01279,26.188823
25.551716804504395,-1.703474,-3.361459,10.117897,-0.044233,-0.00373,-0.01279,26.194705
25.661856174468994,-1.713051,-3.355474,10.120291,-0.044499,-0.004263,-0.01279,26.182939
25.772770881652832,-1.707066,-3.366248,10.14543,-0.045032,-0.003464,-0.012524,26.200588
25.87900972366333,-1.708263,-3.349488,10.143036,-0.044766,-0.00373,-0.01279,26.188823
25.989070892333984,-1.705869,-3.362656,10.122685,-0.044766,-0.003997,-0.01279,26.20647
26.100048542022705,-1.708263,-3.35308,10.134656,-0.045032,-0.00453,-0.012257,26.194705
26.206690073013306,-1.707066,-3.360262,10.13705,-0.044499,-0.003464,-0.012524,26.194705
26.317426681518555,-1.70946,-3.361459,10.123883,-0.044499,-0.003997,-0.012524,26.188823
26.427496433258057,-1.70946,-3.368642,10.132262,-0.044499,-0.004263,-0.01279,26.200588
26.534745931625366,-1.708263,-3.362656,10.129868,-0.044766,-0.004263,-0.013057,26.191764
26.64531135559082,-1.704672,-3.356671,10.12508,-0.044233,-0.003198,-0.012524,26.194705
26.75575876235962,-1.714248,-3.359065,10.126276,-0.044499,-0.004263,-0.011991,26.194705
26.86232852935791,-1.713051,-3.362656,10.12508,-0.044766,-0.003997,-0.012524,26.197647
26.972763299942017,-1.711854,-3.363853,10.127473,-0.044499,-0.003464,-0.012524,26.194705
27.083313941955566,-1.707066,-3.360262,10.131065,-0.044499,-0.00373,-0.013057,26.191764
27.18996262550354,-1.703474,-3.365051,10.120291,-0.045032,-0.00373,-0.012524,26.197647
27.30115032196045,-1.70108,-3.365051,10.141839,-0.0437,-0.003997,-0.012524,26.194705
27.411052465438843,-1.707066,-3.359065,10.117897,-0.044233,-0.003464,-0.012524,26.197647
27.517776250839233,-1.70946,-3.355474,10.138248,-0.044499,-0.00373,-0.01279,26.197647
27.62834119796753,-1.707066,-3.362656,10.1167,-0.044499,-0.003997,-0.01279,26.194705
27.738052129745483,-1.702277,-3.361459,10.126276,-0.044499,-0.004263,-0.01279,26.20647
27.84588360786438,-1.707066,-3.362656,10.128671,-0.044233,-0.00373,-0.01279,26.212352
27.95608139038086,-1.703474,-3.351882,10.138248,-0.045299,-0.00373,-0.012524,26.209411
28.066069841384888,-1.716643,-3.360262,10.126276,-0.044766,-0.00373,-0.012257,26.209411
28.173664331436157,-1.703474,-3.359065,10.122685,-0.044499,-0.003997,-0.012524,26.212352
28.284173488616943,-1.699883,-3.349488,10.127473,-0.044233,-0.003464,-0.011991,26.203529
28.39435362815857,-1.702277,-3.361459,10.127473,-0.043966,-0.00453,-0.01279,26.212352
28.50477409362793,-1.708263,-3.354277,10.134656,-0.044766,-0.00373,-0.012524,26.197647
28.610899686813354,-1.704672,-3.363853,10.134656,-0.045032,-0.003198,-0.011991,26.197647
28.72204828262329,-1.702277,-3.363853,10.127473,-0.043966,-0.004263,-0.012257,26.200588
28.831815481185913,-1.705869,-3.359065,10.135853,-0.044233,-0.003997,-0.012524,26.203529
28.939380645751953,-1.704672,-3.350685,10.129868,-0.044766,-0.004263,-0.012257,26.203529
29.05007576942444,-1.708263,-3.356671,10.127473,-0.044499,-0.00373,-0.01279,26.203529
29.160099029541016,-1.702277,-3.363853,10.134656,-0.044233,-0.004263,-0.01279,26.200588
29.267030954360962,-1.702277,-3.365051,10.127473,-0.044233,-0.00373,-0.012257,26.203529
29.37752938270569,-1.699883,-3.365051,10.12508,-0.043966,-0.00453,-0.012524,26.203529
29.48707365989685,-1.70946,-3.363853,10.13705,-0.044766,-0.00373,-0.013057,26.209411
29.593961000442505,-1.704672,-3.350685,10.141839,-0.044766,-0.00373,-0.011991,26.209411
29.705001831054688,-1.708263,-3.362656,10.13705,-0.044499,-0.004263,-0.013057,26.20647
29.815062761306763,-1.710657,-3.362656,10.13346,-0.044766,-0.004263,-0.013057,26.209411
29.922046661376953,-1.704672,-3.356671,10.126276,-0.044233,-0.004263,-0.012524,26.215293
30.032846927642822,-1.702277,-3.360262,10.127473,-0.044766,-0.00373,-0.012524,26.212352
30.142824411392212,-1.713051,-3.359065,10.132262,-0.045032,-0.00373,-0.01279,26.203529
30.25004768371582,-1.703474,-3.357868,10.134656,-0.043966,-0.003997,-0.01279,26.212352
30.360228061676025,-1.710657,-3.356671,10.139445,-0.044233,-0.004263,-0.012257,26.212352
30.4700665473938,-1.703474,-3.361459,10.127473,-0.044499,-0.004263,-0.011991,26.203529
30.578091621398926,-1.714248,-3.362656,10.134656,-0.044499,-0.00373,-0.012524,26.212352
30.688119411468506,-1.708263,-3.357868,10.119094,-0.043966,-0.004796,-0.01279,26.212352
30.798843145370483,-1.698686,-3.360262,10.134656,-0.044233,-0.004263,-0.011991,26.209411
30.90508008003235,-1.702277,-3.354277,10.131065,-0.044766,-0.003997,-0.012524,26.209411
31.016048908233643,-1.713051,-3.35308,10.128671,-0.045565,-0.00373,-0.01279,26.212352
31.12642526626587,-1.704672,-3.363853,10.14543,-0.044233,-0.003997,-0.012257,26.215293
31.232990026474,-1.702277,-3.362656,10.128671,-0.044499,-0.003997,-0.012524,26.203529
31.344064712524414,-1.713051,-3.35308,10.139445,-0.044233,-0.00453,-0.012524,26.212352
31.454078197479248,-1.708263,-3.357868,10.141839,-0.045032,-0.00373,-0.01279,26.203529
31.56104803085327,-1.71784,-3.354277,10.121488,-0.044233,-0.00373,-0.012257,26.209411
31.67122530937195,-1.692701,-3.359065,10.131065,-0.043966,-0.003997,-0.01279,26.200588
31.782099723815918,-1.71784,-3.357868,10.127473,-0.044233,-0.003997,-0.011991,26.212352
31.892438173294067,-1.708263,-3.354277,10.132262,-0.045299,-0.003997,-0.012524,26.215293
31.99903702735901,-1.704672,-3.350685,10.13705,-0.045032,-0.003997,-0.013057,26.212352
32.108952045440674,-1.707066,-3.361459,10.143036,-0.044233,-0.003464,-0.012257,26.218235
32.22008395195007,-1.708263,-3.361459,10.132262,-0.044499,-0.004263,-0.011991,26.20647
32.326865434646606,-1.704672,-3.359065,10.128671,-0.044766,-0.003198,-0.012257,26.215293
32.43688440322876,-1.703474,-3.357868,10.119094,-0.045299,-0.00373,-0.01279,26.212352
32.54704976081848,-1.70946,-3.362656,10.128671,-0.044766,-0.003464,-0.013323,26.209411
32.65408897399902,-1.703474,-3.361459,10.120291,-0.044233,-0.003997,-0.01279,26.212352
32.76508355140686,-1.703474,-3.356671,10.131065,-0.044499,-0.00373,-0.012524,26.221176
32.875468254089355,-1.708263,-3.360262,10.119094,-0.045832,-0.004263,-0.012524,26.212352
32.98205065727234,-1.707066,-3.357868,10.123883,-0.044233,-0.00373,-0.012257,26.218235
33.09307837486267,-1.707066,-3.35308,10.132262,-0.044499,-0.00453,-0.012524,26.215293
33.20310664176941,-1.705869,-3.360262,10.127473,-0.044766,-0.004263,-0.01279,26.215293
33.31013512611389,-1.708263,-3.355474,10.13346,-0.045299,-0.00373,-0.01359,26.215293
33.420665979385376,-1.705869,-3.361459,10.128671,-0.0437,-0.003997,-0.011991,26.221176
33.53019738197327,-1.704672,-3.359065,10.140642,-0.044499,-0.003997,-0.012524,26.218235
33.637221813201904,-1.714248,-3.362656,10.140642,-0.045565,-0.003997,-0.012524,26.218235
33.747753381729126,-1.705869,-3.361459,10.126276,-0.044233,-0.003997,-0.01279,26.209411
33.85828733444214,-1.695095,-3.35308,10.128671,-0.045032,-0.00373,-0.01279,26.224117
33.965312004089355,-1.705869,-3.361459,10.13705,-0.045032,-0.003997,-0.01279,26.224117
34.076326847076416,-1.704672,-3.357868,10.138248,-0.0437,-0.003997,-0.011991,26.215293
34.18650841712952,-1.708263,-3.359065,10.132262,-0.045299,-0.00373,-0.012524,26.215293
34.293251276016235,-1.705869,-3.360262,10.120291,-0.045832,-0.00373,-0.012257,26.209411
34.4035587310791,-1.70946,-3.355474,10.132262,-0.043433,-0.004263,-0.013057,26.212352
34.513946533203125,-1.70946,-3.362656,10.149022,-0.0437,-0.004263,-0.01279,26.209411
34.62373900413513,-1.708263,-3.357868,10.134656,-0.045832,-0.00373,-0.013323,26.209411
34.731751918792725,-1.713051,-3.363853,10.138248,-0.043433,-0.003997,-0.012257,26.212352
34.84205937385559,-1.705869,-3.359065,10.128671,-0.0429,-0.003997,-0.012257,26.224117
34.95252299308777,-1.698686,-3.360262,10.14543,-0.045299,-0.003198,-0.012257,26.209411
35.05905079841614,-1.705869,-3.366248,10.128671,-0.045565,-0.004263,-0.01279,26.212352
35.16905617713928,-1.696292,-3.355474,10.129868,-0.044766,-0.00373,-0.012257,26.227058
35.280054330825806,-1.708263,-3.357868,10.14543,-0.0437,-0.00373,-0.012257,26.215293
35.38667869567871,-1.710657,-3.355474,10.13346,-0.043433,-0.00373,-0.012524,26.209411
35.49707245826721,-1.710657,-3.365051,10.12508,-0.045032,-0.003464,-0.012524,26.212352
35.608081579208374,-1.707066,-3.360262,10.119094,-0.044499,-0.003997,-0.012257,26.20647
35.715078592300415,-1.705869,-3.363853,10.122685,-0.044499,-0.003997,-0.012257,26.209411
35.82465434074402,-1.715445,-3.357868,10.146627,-0.045299,-0.003997,-0.013057,26.212352
35.93472719192505,-1.70108,-3.360262,10.129868,-0.045032,-0.004263,-0.012524,26.215293
36.04201531410217,-1.708263,-3.360262,10.121488,-0.0437,-0.003997,-0.012257,26.209411
36.15256905555725,-1.704672,-3.354277,10.128671,-0.045032,-0.00373,-0.012524,26.212352
36.2630512714386,-1.707066,-3.354277,10.135853,-0.045299,-0.00373,-0.012257,26.215293
36.37007284164429,-1.703474,-3.357868,10.127473,-0.044766,-0.003997,-0.011991,26.227058
36.48006725311279,-1.70108,-3.361459,10.135853,-0.044499,-0.00453,-0.01279,26.212352
36.59102463722229,-1.708263,-3.361459,10.126276,-0.045032,-0.00373,-0.012257,26.209411
36.697282552719116,-1.707066,-3.361459,10.12508,-0.044499,-0.00373,-0.01279,26.224117
36.808016538619995,-1.70108,-3.369839,10.1167,-0.044766,-0.004263,-0.012524,26.224117
36.91858124732971,-1.703474,-3.356671,10.131065,-0.044499,-0.004263,-0.012524,26.221176
37.025057554244995,-1.697489,-3.355474,10.128671,-0.044499,-0.004263,-0.012257,26.227058
37.136059045791626,-1.714248,-3.361459,10.12508,-0.044499,-0.00373,-0.012524,26.221176
37.246055603027344,-1.705869,-3.361459,10.13705,-0.044499,-0.00373,-0.012524,26.224117
37.35320854187012,-1.708263,-3.357868,10.138248,-0.043966,-0.003198,-0.01279,26.221176
37.46405220031738,-1.703474,-3.356671,10.129868,-0.043966,-0.004263,-0.012524,26.235881
37.573864221572876,-1.704672,-3.351882,10.13346,-0.044499,-0.003997,-0.012257,26.229999
37.684059619903564,-1.714248,-3.365051,10.141839,-0.044499,-0.00373,-0.01279,26.227058
37.79084229469299,-1.703474,-3.360262,10.134656,-0.045032,-0.003997,-0.012524,26.218235
37.901872634887695,-1.703474,-3.359065,10.132262,-0.045299,-0.00373,-0.013057,26.212352
38.01215958595276,-1.714248,-3.360262,10.127473,-0.044499,-0.003997,-0.01279,26.212352
38.119056940078735,-1.716643,-3.350685,10.138248,-0.044499,-0.003464,-0.012257,26.218235
38.22906422615051,-1.715445,-3.354277,10.131065,-0.045032,-0.003997,-0.013057,26.218235
38.34006929397583,-1.710657,-3.354277,10.115503,-0.045032,-0.003997,-0.012257,26.229999
38.44706082344055,-1.703474,-3.362656,10.129868,-0.043966,-0.00373,-0.012524,26.215293
38.557204246520996,-1.719037,-3.360262,10.13346,-0.044499,-0.004263,-0.012524,26.229999
38.667234897613525,-1.702277,-3.356671,10.122685,-0.044766,-0.003997,-0.012257,26.224117
38.77506995201111,-1.699883,-3.361459,10.123883,-0.043966,-0.004263,-0.012524,26.227058
38.885069370269775,-1.703474,-3.367445,10.123883,-0.044233,-0.003198,-0.012524,26.224117
38.99566054344177,-1.715445,-3.361459,10.126276,-0.044499,-0.003997,-0.012524,26.229999
39.10208749771118,-1.710657,-3.357868,10.135853,-0.044766,-0.00373,-0.01279,26.227058
39.212907552719116,-1.699883,-3.367445,10.143036,-0.045299,-0.003997,-0.012524,26.238822
39.322872161865234,-1.702277,-3.357868,10.127473,-0.043433,-0.00453,-0.012524,26.221176
39.4300742149353,-1.704672,-3.357868,10.129868,-0.044499,-0.003997,-0.013323,26.235881
39.540053367614746,-1.707066,-3.365051,10.135853,-0.045032,-0.004263,-0.012524,26.221176
39.65108251571655,-1.714248,-3.361459,10.128671,-0.044499,-0.003464,-0.012524,26.229999
39.75806498527527,-1.70108,-3.363853,10.139445,-0.044233,-0.003198,-0.011991,26.23294
39.86757826805115,-1.702277,-3.359065,10.134656,-0.044766,-0.00373,-0.012524,26.23294
39.97866487503052,-1.707066,-3.361459,10.138248,-0.044499,-0.00373,-0.01279,26.221176
40.08511710166931,-1.705869,-3.357868,10.127473,-0.045299,-0.004263,-0.012257,26.229999
40.19558334350586,-1.70946,-3.361459,10.13346,-0.044766,-0.003997,-0.012257,26.227058
40.30606985092163,-1.70946,-3.359065,10.129868,-0.044233,-0.00373,-0.011991,26.227058
40.41607451438904,-1.708263,-3.359065,10.127473,-0.044233,-0.003997,-0.01279,26.229999
40.52362608909607,-1.705869,-3.351882,10.13346,-0.044499,-0.00373,-0.011724,26.23294
40.63406777381897,-1.697489,-3.35308,10.139445,-0.045299,-0.003464,-0.012257,26.238822
40.74467730522156,-1.705869,-3.356671,10.139445,-0.044766,-0.00373,-0.012257,26.229999
40.85108804702759,-1.690306,-3.361459,10.131065,-0.044499,-0.00373,-0.012524,26.238822
40.96105480194092,-1.70108,-3.361459,10.126276,-0.043966,-0.003997,-0.012524,26.241764
41.07205414772034,-1.70946,-3.362656,10.13346,-0.045565,-0.00373,-0.01279,26.229999
41.179072856903076,-1.704672,-3.368642,10.12508,-0.045299,-0.00373,-0.013057,26.238822
41.289278507232666,-1.713051,-3.361459,10.126276,-0.0437,-0.00453,-0.012524,26.238822
41.39926099777222,-1.704672,-3.362656,10.13346,-0.0437,-0.003997,-0.012524,26.241764
41.507068157196045,-1.703474,-3.354277,10.134656,-0.045299,-0.00373,-0.01279,26.244705
41.61706733703613,-1.70108,-3.354277,10.128671,-0.045032,-0.004263,-0.01279,26.23294
41.72719097137451,-1.70108,-3.367445,10.129868,-0.043966,-0.00373,-0.012257,26.244705
41.83420515060425,-1.704672,-3.362656,10.120291,-0.045032,-0.003198,-0.01279,26.235881
41.9447808265686,-1.703474,-3.366248,10.131065,-0.045032,-0.00373,-0.012524,26.229999
42.05518198013306,-1.705869,-3.357868,10.132262,-0.045032,-0.00453,-0.012524,26.235881
42.16204118728638,-1.705869,-3.355474,10.128671,-0.045299,-0.003997,-0.012524,26.244705
42.273046255111694,-1.708263,-3.355474,10.131065,-0.0437,-0.003997,-0.012257,26.244705
42.38290309906006,-1.711854,-3.360262,10.123883,-0.044499,-0.004263,-0.012524,26.23294
42.49006700515747,-1.714248,-3.356671,10.135853,-0.045565,-0.003997,-0.012524,26.244705
42.600526571273804,-1.705869,-3.354277,10.122685,-0.044499,-0.004263,-0.01279,26.241764
42.71005725860596,-1.708263,-3.356671,10.119094,-0.044233,-0.00373,-0.013057,26.235881
42.81707954406738,-1.699883,-3.35308,10.138248,-0.045032,-0.00373,-0.011991,26.238822
42.928131341934204,-1.71784,-3.354277,10.1167,-0.044499,-0.00373,-0.01279,26.229999
43.03801774978638,-1.713051,-3.362656,10.134656,-0.044766,-0.00373,-0.012257,26.224117
43.145198583602905,-1.707066,-3.354277,10.127473,-0.044766,-0.003464,-0.012257,26.229999
43.25576400756836,-1.708263,-3.35308,10.139445,-0.044233,-0.00373,-0.01279,26.235881
43.36588764190674,-1.705869,-3.357868,10.12508,-0.044233,-0.004263,-0.01279,26.235881
43.47313117980957,-1.699883,-3.357868,10.139445,-0.045032,-0.004263,-0.013057,26.238822
43.58367705345154,-1.702277,-3.356671,10.140642,-0.043433,-0.004796,-0.012524,26.235881
43.693989276885986,-1.705869,-3.355474,10.127473,-0.043433,-0.00453,-0.012524,26.238822
43.80379843711853,-1.693898,-3.355474,10.138248,-0.044766,-0.00373,-0.012257,26.238822
43.91149091720581,-1.707066,-3.351882,10.129868,-0.045565,-0.00373,-0.012524,26.244705
44.0217764377594,-1.704672,-3.367445,10.139445,-0.044233,-0.00373,-0.012257,26.229999
44.13190770149231,-1.699883,-3.357868,10.126276,-0.043433,-0.003997,-0.012257,26.244705
44.23879408836365,-1.70108,-3.3447,10.131065,-0.045032,-0.003997,-0.012257,26.229999
44.34921360015869,-1.705869,-3.35308,10.134656,-0.045565,-0.003464,-0.01279,26.229999
44.459779262542725,-1.70946,-3.368642,10.132262,-0.045299,-0.003997,-0.01279,26.235881
44.567052125930786,-1.703474,-3.356671,10.120291,-0.0429,-0.00453,-0.012524,26.229999
44.67708206176758,-1.708263,-3.354277,10.132262,-0.043433,-0.004263,-0.012524,26.227058
44.78781819343567,-1.704672,-3.351882,10.129868,-0.046631,-0.003198,-0.012524,26.23294
44.894081592559814,-1.710657,-3.354277,10.134656,-0.045565,-0.003464,-0.012524,26.235881
45.00507736206055,-1.703474,-3.369839,10.1167,-0.043433,-0.00453,-0.01279,26.235881
45.11506247520447,-1.702277,-3.362656,10.132262,-0.0437,-0.004263,-0.012257,26.244705
45.222084045410156,-1.713051,-3.356671,10.127473,-0.046098,-0.00373,-0.01279,26.244705
45.332070112228394,-1.705869,-3.35308,10.128671,-0.044766,-0.00373,-0.013057,26.238822
45.442564964294434,-1.703474,-3.356671,10.138248,-0.044233,-0.004263,-0.012524,26.238822
45.55006647109985,-1.702277,-3.357868,10.123883,-0.043433,-0.004263,-0.011724,26.23294
45.66025400161743,-1.708263,-3.355474,10.132262,-0.044499,-0.003997,-0.012524,26.238822
45.770819425582886,-1.715445,-3.375824,10.127473,-0.045565,-0.00373,-0.01279,26.241764
45.87705993652344,-1.70946,-3.361459,10.13346,-0.044233,-0.004263,-0.012257,26.238822
45.98784780502319,-1.708263,-3.363853,10.139445,-0.0437,-0.00373,-0.012524,26.256469
46.098565101623535,-1.705869,-3.363853,10.13346,-0.045299,-0.00373,-0.012257,26.247646
46.205281019210815,-1.711854,-3.355474,10.150218,-0.044499,-0.003464,-0.012257,26.238822
46.31626486778259,-1.710657,-3.360262,10.147825,-0.044499,-0.003997,-0.012257,26.244705
46.42626714706421,-1.703474,-3.35308,10.138248,-0.045032,-0.003464,-0.01279,26.23294
46.53305768966675,-1.704672,-3.363853,10.134656,-0.045299,-0.00373,-0.012524,26.247646
46.64375281333923,-1.70946,-3.351882,10.123883,-0.044499,-0.003464,-0.01279,26.247646
46.75407290458679,-1.704672,-3.359065,10.127473,-0.044233,-0.004263,-0.012524,26.241764
46.86405920982361,-1.703474,-3.363853,10.144233,-0.044766,-0.00373,-0.012257,26.244705
46.97123670578003,-1.704672,-3.349488,10.128671,-0.045832,-0.003464,-0.012257,26.247646
47.08105969429016,-1.70946,-3.359065,10.139445,-0.045032,-0.00373,-0.012257,26.247646
47.192280292510986,-1.703474,-3.359065,10.127473,-0.0437,-0.004796,-0.012524,26.250587
47.29886984825134,-1.702277,-3.356671,10.138248,-0.044233,-0.003997,-0.012524,26.247646
47.408618211746216,-1.703474,-3.360262,10.13705,-0.044766,-0.003464,-0.01279,26.23294
47.51986265182495,-1.704672,-3.362656,10.138248,-0.045299,-0.00373,-0.013057,26.241764
47.626081705093384,-1.699883,-3.356671,10.134656,-0.043433,-0.004796,-0.012257,26.250587
47.73699355125427,-1.698686,-3.355474,10.126276,-0.0429,-0.004796,-0.012524,26.247646
47.84744691848755,-1.708263,-3.350685,10.132262,-0.045565,-0.003198,-0.012257,26.241764
47.954028367996216,-1.70108,-3.362656,10.135853,-0.046098,-0.003997,-0.01279,26.250587
48.064966678619385,-1.703474,-3.368642,10.132262,-0.0437,-0.004263,-0.012524,26.247646
48.1754195690155,-1.702277,-3.354277,10.128671,-0.044766,-0.003997,-0.012257,26.244705
48.28201913833618,-1.708263,-3.351882,10.13705,-0.045565,-0.003198,-0.012524,26.244705
48.391884088516235,-1.702277,-3.359065,10.123883,-0.044766,-0.00373,-0.012524,26.253528
48.503066062927246,-1.691504,-3.359065,10.123883,-0.044499,-0.003997,-0.012524,26.247646
48.60976195335388,-1.70108,-3.356671,10.139445,-0.044766,-0.004263,-0.012257,26.247646
48.720248222351074,-1.698686,-3.362656,10.135853,-0.045032,-0.003464,-0.011991,26.244705
48.83106255531311,-1.711854,-3.362656,10.13346,-0.044233,-0.003997,-0.012524,26.244705
48.937084436416626,-1.699883,-3.35308,10.129868,-0.0429,-0.005063,-0.012257,26.241764
49.04759240150452,-1.698686,-3.357868,10.121488,-0.045032,-0.003997,-0.012524,26.253528
49.157788038253784,-1.708263,-3.366248,10.129868,-0.045299,-0.003464,-0.012524,26.253528
49.26581335067749,-1.711854,-3.355474,10.131065,-0.045032,-0.00373,-0.012524,26.247646
49.375343799591064,-1.703474,-3.361459,10.131065,-0.044233,-0.00373,-0.01279,26.241764
49.486570596694946,-1.707066,-3.354277,10.135853,-0.0437,-0.003997,-0.01279,26.238822
49.595837116241455,-1.708263,-3.357868,10.138248,-0.044766,-0.003997,-0.012524,26.247646
49.702866077423096,-1.702277,-3.359065,10.14543,-0.045299,-0.003464,-0.012257,26.235881
49.81389117240906,-1.707066,-3.367445,10.140642,-0.043966,-0.003997,-0.01279,26.247646
49.92391562461853,-1.715445,-3.361459,10.134656,-0.043966,-0.003997,-0.01279,26.247646
50.03093647956848,-1.707066,-3.349488,10.132262,-0.045032,-0.00373,-0.013057,26.241764
50.14096450805664,-1.699883,-3.359065,10.128671,-0.045565,-0.003997,-0.01279,26.247646
50.251935958862305,-1.703474,-3.357868,10.134656,-0.044233,-0.00373,-0.012524,26.256469
50.35871434211731,-1.704672,-3.359065,10.128671,-0.044499,-0.003997,-0.012524,26.262351
50.469380140304565,-1.710657,-3.372233,10.126276,-0.044499,-0.003997,-0.012257,26.25941
50.58005976676941,-1.703474,-3.357868,10.122685,-0.045565,-0.00373,-0.013323,26.253528
50.686912059783936,-1.711854,-3.357868,10.12508,-0.044766,-0.00373,-0.01279,26.256469
50.79706406593323,-1.703474,-3.361459,10.129868,-0.044233,-0.00453,-0.012257,26.253528
50.90738320350647,-1.704672,-3.361459,10.135853,-0.044233,-0.00373,-0.01279,26.262351
51.01427602767944,-1.711854,-3.360262,10.139445,-0.045032,-0.003997,-0.011991,26.250587
51.12398052215576,-1.708263,-3.356671,10.127473,-0.044766,-0.00373,-0.011724,26.244705
51.23500919342041,-1.70946,-3.351882,10.132262,-0.044766,-0.00373,-0.011991,26.250587
51.34234261512756,-1.714248,-3.355474,10.120291,-0.044233,-0.004263,-0.01279,26.256469
51.452356576919556,-1.705869,-3.366248,10.13346,-0.044233,-0.00373,-0.011724,26.256469
51.56243133544922,-1.711854,-3.359065,10.12508,-0.045299,-0.003198,-0.01279,26.256469
51.6700873374939,-1.710657,-3.355474,10.131065,-0.0437,-0.003997,-0.01279,26.241764
51.780208587646484,-1.704672,-3.35308,10.128671,-0.044499,-0.004263,-0.011991,26.235881
51.88989806175232,-1.697489,-3.360262,10.132262,-0.044766,-0.00373,-0.01279,26.241764
51.99728488922119,-1.708263,-3.361459,10.128671,-0.045032,-0.003198,-0.012257,26.241764
52.10800242424011,-1.705869,-3.362656,10.138248,-0.045032,-0.003997,-0.012524,26.253528
52.218446254730225,-1.699883,-3.355474,10.135853,-0.044499,-0.004263,-0.011991,26.250587
52.32502031326294,-1.70108,-3.354277,10.122685,-0.045032,-0.003198,-0.011991,26.253528
52.43506455421448,-1.702277,-3.363853,10.114306,-0.044766,-0.004263,-0.012257,26.256469
52.54606890678406,-1.70946,-3.356671,10.128671,-0.044766,-0.003997,-0.01279,26.25941
52.653258085250854,-1.710657,-3.360262,10.132262,-0.045032,-0.004263,-0.01279,26.265293
52.76345086097717,-1.713051,-3.355474,10.119094,-0.045032,-0.004263,-0.011991,26.247646
52.87401556968689,-1.703474,-3.347094,10.139445,-0.044499,-0.004263,-0.012257,26.265293
52.984036922454834,-1.704672,-3.368642,10.132262,-0.044233,-0.003198,-0.012257,26.256469
53.090994119644165,-1.70946,-3.361459,10.134656,-0.044499,-0.00373,-0.012257,26.25941
53.201141119003296,-1.70108,-3.357868,10.13705,-0.044766,-0.003997,-0.012524,26.25941
53.31207823753357,-1.70108,-3.362656,10.123883,-0.045032,-0.00373,-0.013057,26.256469
53.41891551017761,-1.70108,-3.361459,10.12508,-0.043966,-0.00373,-0.012257,26.253528
53.52878713607788,-1.710657,-3.359065,10.128671,-0.0437,-0.00373,-0.012257,26.253528
53.63905715942383,-1.711854,-3.356671,10.128671,-0.043966,-0.004263,-0.012257,26.25941
53.74607038497925,-1.704672,-3.355474,10.134656,-0.043433,-0.003997,-0.012257,26.256469
53.856725215911865,-1.707066,-3.350685,10.14543,-0.044499,-0.00373,-0.012524,26.256469
53.96661925315857,-1.699883,-3.354277,10.126276,-0.045565,-0.003997,-0.012524,26.250587
54.073662519454956,-1.697489,-3.369839,10.135853,-0.045299,-0.003464,-0.01279,26.25941
54.18467974662781,-1.703474,-3.367445,10.123883,-0.044766,-0.00373,-0.012257,26.265293
54.29507827758789,-1.707066,-3.363853,10.12508,-0.043966,-0.003997,-0.012257,26.250587
54.4019775390625,-1.705869,-3.361459,10.120291,-0.045032,-0.00373,-0.013323,26.253528
54.51259255409241,-1.70946,-3.354277,10.121488,-0.045032,-0.003198,-0.011991,26.262351
54.62286567687988,-1.704672,-3.35308,10.131065,-0.043966,-0.00373,-0.01279,26.256469
54.72907757759094,-1.70946,-3.355474,10.126276,-0.044766,-0.00373,-0.012257,26.256469
54.83951020240784,-1.695095,-3.354277,10.139445,-0.045032,-0.003997,-0.01279,26.265293
54.94992661476135,-1.703474,-3.350685,10.134656,-0.045032,-0.003997,-0.01279,26.244705
55.05801224708557,-1.70108,-3.357868,10.135853,-0.045032,-0.003997,-0.013057,26.256469
55.168023109436035,-1.714248,-3.361459,10.129868,-0.044499,-0.004263,-0.012524,26.265293
55.278505086898804,-1.705869,-3.35308,10.131065,-0.044766,-0.00453,-0.012257,26.25941
55.38479995727539,-1.707066,-3.360262,10.126276,-0.045032,-0.003464,-0.01279,26.256469
55.49551200866699,-1.711854,-3.349488,10.127473,-0.045032,-0.00373,-0.012524,26.25941
55.606059551239014,-1.711854,-3.361459,10.121488,-0.044766,-0.003464,-0.01279,26.256469
55.71304726600647,-1.70946,-3.360262,10.135853,-0.044233,-0.004263,-0.012524,26.256469
55.823254108428955,-1.703474,-3.357868,10.122685,-0.045565,-0.00373,-0.01279,26.262351
55.93367123603821,-1.714248,-3.363853,10.13705,-0.045032,-0.003997,-0.012524,26.262351
56.044090270996094,-1.699883,-3.362656,10.13705,-0.0437,-0.004796,-0.013057,26.265293
56.15101075172424,-1.707066,-3.359065,10.132262,-0.045299,-0.00373,-0.012257,26.253528
56.26153492927551,-1.710657,-3.360262,10.131065,-0.045832,-0.003464,-0.01279,26.25941
56.37207531929016,-1.711854,-3.360262,10.120291,-0.045032,-0.00373,-0.012257,26.256469
56.47808480262756,-1.697489,-3.357868,10.135853,-0.044233,-0.00373,-0.012524,26.253528
56.58911657333374,-1.703474,-3.361459,10.138248,-0.045032,-0.003997,-0.012257,26.25941
56.6987144947052,-1.705869,-3.362656,10.138248,-0.045832,-0.003464,-0.01279,26.262351
56.806684732437134,-1.708263,-3.359065,10.132262,-0.044766,-0.003997,-0.012257,26.256469
56.916759729385376,-1.707066,-3.356671,10.131065,-0.043433,-0.004263,-0.011991,26.265293
57.02670073509216,-1.697489,-3.35308,10.131065,-0.044499,-0.00373,-0.012524,26.262351
57.13372230529785,-1.703474,-3.35308,10.128671,-0.045832,-0.00373,-0.012524,26.253528
57.244587898254395,-1.70946,-3.355474,10.138248,-0.045299,-0.00373,-0.012524,26.256469
57.354602336883545,-1.697489,-3.345897,10.122685,-0.043966,-0.004263,-0.012257,26.247646
57.461631774902344,-1.697489,-3.359065,10.131065,-0.044233,-0.00373,-0.01279,26.265293
57.572147846221924,-1.711854,-3.351882,10.126276,-0.045565,-0.003997,-0.013057,26.25941
57.68259119987488,-1.705869,-3.360262,10.128671,-0.045032,-0.003198,-0.012257,26.265293
57.789966106414795,-1.697489,-3.354277,10.14543,-0.044233,-0.004263,-0.012257,26.262351
57.89989471435547,-1.707066,-3.349488,10.141839,-0.043966,-0.00373,-0.012524,26.268234
58.010066747665405,-1.704672,-3.366248,10.13346,-0.045565,-0.003464,-0.013057,26.250587
58.117085695266724,-1.70946,-3.360262,10.12508,-0.046098,-0.004796,-0.012524,26.25941
58.22759509086609,-1.703474,-3.363853,10.127473,-0.044499,-0.00373,-0.012524,26.256469
58.33801245689392,-1.699883,-3.359065,10.129868,-0.044233,-0.003997,-0.012257,26.262351
58.44481086730957,-1.705869,-3.35308,10.134656,-0.045299,-0.003997,-0.013057,26.262351
58.55560541152954,-1.705869,-3.363853,10.134656,-0.045299,-0.004263,-0.013057,26.274116
58.666271448135376,-1.705869,-3.359065,10.129868,-0.045299,-0.003997,-0.012257,26.250587
58.77276349067688,-1.707066,-3.350685,10.12508,-0.044499,-0.003997,-0.012257,26.238822
58.88278317451477,-1.713051,-3.350685,10.128671,-0.044499,-0.004263,-0.011724,26.25941
58.99360752105713,-1.702277,-3.357868,10.119094,-0.044766,-0.003464,-0.011991,26.247646
59.10417318344116,-1.699883,-3.356671,10.120291,-0.044766,-0.003997,-0.013323,26.25941
59.21107864379883,-1.704672,-3.355474,10.13705,-0.043966,-0.004796,-0.012257,26.25941
59.32107615470886,-1.703474,-3.356671,10.132262,-0.043966,-0.004263,-0.01279,26.25941
59.431102991104126,-1.711854,-3.360262,10.128671,-0.045032,-0.00373,-0.01279,26.256469
59.538169145584106,-1.705869,-3.35308,10.126276,-0.044233,-0.004263,-0.012257,26.256469
59.649068117141724,-1.713051,-3.361459,10.121488,-0.044233,-0.003997,-0.01279,26.271175
59.759639739990234,-1.71784,-3.368642,10.14543,-0.044499,-0.00453,-0.011724,26.253528
59.86604070663452,-1.699883,-3.351882,10.121488,-0.044766,-0.00373,-0.012524,26.25941
59.97605013847351,-1.707066,-3.354277,10.126276,-0.044766,-0.003997,-0.012257,26.262351
60.087053060531616,-1.710657,-3.354277,10.13346,-0.044766,-0.003198,-0.012257,26.262351
60.19407320022583,-1.702277,-3.356671,10.13705,-0.044766,-0.003464,-0.01279,26.25941
60.30407190322876,-1.703474,-3.354277,10.132262,-0.044766,-0.003464,-0.012257,26.253528
60.415213108062744,-1.708263,-3.355474,10.131065,-0.044233,-0.00373,-0.013057,26.25941
60.521666049957275,-1.699883,-3.368642,10.138248,-0.044766,-0.003198,-0.012257,26.262351
60.632076025009155,-1.705869,-3.360262,10.134656,-0.045032,-0.00373,-0.012524,26.256469
60.74265122413635,-1.698686,-3.359065,10.117897,-0.044499,-0.00373,-0.012524,26.25941
60.84996819496155,-1.699883,-3.359065,10.140642,-0.043966,-0.00373,-0.01279,26.265293
60.960071086883545,-1.711854,-3.360262,10.122685,-0.043966,-0.003997,-0.012257,26.265293
61.06999588012695,-1.707066,-3.348291,10.132262,-0.044766,-0.004263,-0.012257,26.253528
61.17702007293701,-1.703474,-3.354277,10.140642,-0.045565,-0.003464,-0.01279,26.265293
61.28794455528259,-1.703474,-3.360262,10.139445,-0.044499,-0.00373,-0.012257,26.265293
61.39807939529419,-1.707066,-3.355474,10.131065,-0.044233,-0.00373,-0.012524,26.268234
61.5050835609436,-1.715445,-3.351882,10.126276,-0.044499,-0.00453,-0.012524,26.25941
61.61559271812439,-1.70946,-3.362656,10.119094,-0.044233,-0.003464,-0.011991,26.25941
61.72607731819153,-1.705869,-3.359065,10.128671,-0.044499,-0.003464,-0.012257,26.256469
61.8359637260437,-1.704672,-3.361459,10.123883,-0.045299,-0.003997,-0.012524,26.268234
61.943551778793335,-1.707066,-3.350685,10.128671,-0.0437,-0.004263,-0.01279,26.268234
62.053691148757935,-1.70108,-3.348291,10.128671,-0.044233,-0.003997,-0.01279,26.256469
62.16425633430481,-1.707066,-3.345897,10.129868,-0.045832,-0.003464,-0.012524,26.265293
62.27058291435242,-1.703474,-3.359065,10.128671,-0.045565,-0.003464,-0.013057,26.265293
62.381248235702515,-1.710657,-3.35308,10.128671,-0.043433,-0.004263,-0.013057,26.265293
62.49107789993286,-1.708263,-3.360262,10.129868,-0.043433,-0.00453,-0.012257,26.268234
62.59908127784729,-1.711854,-3.35308,10.123883,-0.045299,-0.003464,-0.012524,26.265293
62.70861744880676,-1.714248,-3.357868,10.123883,-0.045565,-0.003464,-0.012257,26.268234
62.81907510757446,-1.703474,-3.362656,10.132262,-0.045032,-0.00453,-0.012524,26.271175
62.92630100250244,-1.714248,-3.354277,10.1167,-0.044233,-0.004263,-0.011991,26.274116
63.03607702255249,-1.699883,-3.349488,10.132262,-0.045032,-0.004263,-0.01279,26.262351
63.14705181121826,-1.711854,-3.355474,10.129868,-0.044233,-0.003997,-0.012524,26.253528
63.25408959388733,-1.713051,-3.359065,10.132262,-0.044233,-0.004263,-0.01279,26.262351
63.36473107337952,-1.708263,-3.355474,10.129868,-0.045032,-0.003997,-0.012257,26.268234
63.47409415245056,-1.707066,-3.359065,10.135853,-0.046364,-0.003464,-0.012524,26.268234
63.582072257995605,-1.70108,-3.361459,10.134656,-0.045832,-0.003464,-0.012524,26.271175
63.69168543815613,-1.704672,-3.361459,10.126276,-0.044499,-0.004796,-0.012257,26.268234
63.80273485183716,-1.703474,-3.348291,10.131065,-0.042368,-0.005329,-0.012524,26.268234
63.90907526016235,-1.705869,-3.347094,10.126276,-0.043966,-0.00373,-0.011458,26.277057
64.01979899406433,-1.699883,-3.354277,10.132262,-0.045565,-0.004263,-0.011991,26.277057
64.12954139709473,-1.708263,-3.354277,10.129868,-0.046364,-0.003997,-0.013057,26.271175
64.23734188079834,-1.711854,-3.360262,10.150218,-0.045832,-0.00373,-0.01279,26.279998
64.347247838974,-1.70108,-3.360262,10.128671,-0.043433,-0.00373,-0.012257,26.279998
64.45810389518738,-1.707066,-3.350685,10.131065,-0.042101,-0.005063,-0.011991,26.279998
64.56525373458862,-1.698686,-3.356671,10.141839,-0.044766,-0.00373,-0.012257,26.274116
64.67525219917297,-1.708263,-3.359065,10.127473,-0.04823,-0.00373,-0.013057,26.271175
64.78508996963501,-1.708263,-3.368642,10.134656,-0.044766,-0.00373,-0.012524,26.285881
64.89610505104065,-1.70108,-3.360262,10.131065,-0.041035,-0.004796,-0.012524,26.285881
65.00292873382568,-1.695095,-3.362656,10.131065,-0.046098,-0.003464,-0.01279,26.291763
65.11311411857605,-1.70108,-3.351882,10.135853,-0.04743,-0.003464,-0.012524,26.279998
65.2231376171112,-1.70108,-3.362656,10.12508,-0.044233,-0.00453,-0.01279,26.285881
65.33116126060486,-1.702277,-3.359065,10.128671,-0.043167,-0.003997,-0.012524,26.288822
65.44118666648865,-1.704672,-3.359065,10.132262,-0.045032,-0.00373,-0.012257,26.279998
65.55159497261047,-1.70946,-3.361459,10.12508,-0.045299,-0.003464,-0.012524,26.282939
65.6581244468689,-1.705869,-3.356671,10.13346,-0.0437,-0.004796,-0.012257,26.279998
65.76914811134338,-1.699883,-3.347094,10.135853,-0.041835,-0.005329,-0.011991,26.271175
65.8791732788086,-1.713051,-3.360262,10.139445,-0.04743,-0.00373,-0.01279,26.282939
65.98620128631592,-1.70946,-3.362656,10.132262,-0.049296,-0.002398,-0.013057,26.285881
66.09651899337769,-1.715445,-3.359065,10.126276,-0.040502,-0.005063,-0.011991,26.277057
66.20708322525024,-1.702277,-3.348291,10.131065,-0.040236,-0.005063,-0.011191,26.271175
66.31408715248108,-1.702277,-3.355474,10.141839,-0.048496,-0.002398,-0.013057,26.265293
66.42407560348511,-1.705869,-3.356671,10.134656,-0.04743,-0.002931,-0.012524,26.262351
66.53407096862793,-1.705869,-3.363853,10.114306,-0.042634,-0.004796,-0.011724,26.277057
66.64207816123962,-1.710657,-3.355474,10.126276,-0.044766,-0.003997,-0.012524,26.268234
66.75207543373108,-1.713051,-3.350685,10.138248,-0.047963,-0.002931,-0.013323,26.277057
66.86259412765503,-1.70946,-3.345897,10.135853,-0.044233,-0.003997,-0.012257,26.277057
66.96908354759216,-1.698686,-3.356671,10.120291,-0.041302,-0.005329,-0.012257,26.282939
67.08007383346558,-1.707066,-3.371036,10.140642,-0.045299,-0.00373,-0.012524,26.279998
67.19009041786194,-1.707066,-3.359065,10.131065,-0.049029,-0.002665,-0.012524,26.282939
67.29706811904907,-1.70108,-3.367445,10.119094,-0.044233,-0.003997,-0.01279,26.279998
67.40741682052612,-1.692701,-3.354277,10.114306,-0.041035,-0.005063,-0.011724,26.279998
67.51798343658447,-1.70946,-3.363853,10.128671,-0.044499,-0.00453,-0.01279,26.274116
67.625070810318,-1.703474,-3.354277,10.132262,-0.046098,-0.00373,-0.01279,26.277057
67.73507785797119,-1.708263,-3.359065,10.103531,-0.043167,-0.004263,-0.012257,26.282939
67.84584665298462,-1.708263,-3.355474,10.139445,-0.045565,-0.003997,-0.012257,26.271175
67.95607137680054,-1.705869,-3.365051,10.132262,-0.048496,-0.002398,-0.012524,26.285881
68.06308555603027,-1.70946,-3.356671,10.114306,-0.041835,-0.005063,-0.012257,26.279998
68.17308282852173,-1.710657,-3.350685,10.143036,-0.041568,-0.004796,-0.011458,26.288822
68.28390121459961,-1.707066,-3.347094,10.135853,-0.049296,-0.002665,-0.01279,26.285881
68.3910756111145,-1.70946,-3.355474,10.117897,-0.044766,-0.00373,-0.012524,26.288822
68.50125312805176,-1.711854,-3.363853,10.132262,-0.041568,-0.004796,-0.011991,26.274116
68.61162257194519,-1.705869,-3.341109,10.129868,-0.045299,-0.003464,-0.012257,26.279998
68.71845650672913,-1.704672,-3.351882,10.122685,-0.045299,-0.004263,-0.01279,26.279998
68.82901692390442,-1.705869,-3.360262,10.128671,-0.044499,-0.003997,-0.01279,26.285881
68.93944263458252,-1.697489,-3.354277,10.140642,-0.0437,-0.004263,-0.012257,26.277057
69.04590225219727,-1.699883,-3.349488,10.129868,-0.044766,-0.003464,-0.011991,26.282939
69.1569311618805,-1.708263,-3.348291,10.117897,-0.047697,-0.002931,-0.013057,26.274116
69.26695799827576,-1.708263,-3.356671,10.127473,-0.0437,-0.003997,-0.012524,26.279998
69.37365627288818,-1.705869,-3.35308,10.13346,-0.040502,-0.005596,-0.011458,26.274116
69.48446893692017,-1.70108,-3.351882,10.13705,-0.047697,-0.002665,-0.013057,26.285881
69.59408187866211,-1.703474,-3.357868,10.121488,-0.049562,-0.002398,-0.013057,26.279998
69.70148634910583,-1.703474,-3.359065,10.126276,-0.041568,-0.005063,-0.012257,26.279998
69.81205344200134,-1.702277,-3.354277,10.122685,-0.042368,-0.004796,-0.012257,26.282939
69.92192602157593,-1.705869,-3.360262,10.129868,-0.044499,-0.004263,-0.012257,26.288822
70.02907729148865,-1.698686,-3.35308,10.147825,-0.045299,-0.003464,-0.01279,26.285881
70.14007639884949,-1.705869,-3.360262,10.138248,-0.048763,-0.002398,-0.01359,26.282939
70.25022172927856,-1.702277,-3.362656,10.131065,-0.045032,-0.003464,-0.012524,26.288822
70.35707449913025,-1.703474,-3.350685,10.122685,-0.038904,-0.006662,-0.011724,26.285881
70.46707963943481,-1.695095,-3.345897,10.132262,-0.044499,-0.00373,-0.012257,26.282939
70.57791996002197,-1.707066,-3.359065,10.129868,-0.051427,-0.002132,-0.01359,26.279998
70.68510317802429,-1.716643,-3.361459,10.120291,-0.046897,-0.003464,-0.012524,26.288822
70.79508376121521,-1.710657,-3.356671,10.113108,-0.038904,-0.005862,-0.011991,26.277057
70.90593004226685,-1.699883,-3.351882,10.13705,-0.042634,-0.005329,-0.012524,26.285881
71.0162341594696,-1.719037,-3.360262,10.135853,-0.051161,-0.001865,-0.01279,26.294704
71.12294745445251,-1.703474,-3.367445,10.120291,-0.047697,-0.003198,-0.013057,26.282939
71.23308539390564,-1.708263,-3.357868,10.110714,-0.039436,-0.005596,-0.011991,26.274116
71.34318828582764,-1.70108,-3.354277,10.13346,-0.0437,-0.004263,-0.011991,26.288822
71.45007801055908,-1.702277,-3.362656,10.146627,-0.049296,-0.002398,-0.013057,26.291763
71.56108951568604,-1.714248,-3.361459,10.127473,-0.045032,-0.004263,-0.013057,26.285881
71.67108082771301,-1.707066,-3.359065,10.126276,-0.041302,-0.005329,-0.012257,26.282939
71.77806854248047,-1.713051,-3.355474,10.12508,-0.044766,-0.00373,-0.012257,26.277057
71.8888430595398,-1.705869,-3.365051,10.121488,-0.045032,-0.003997,-0.01279,26.288822
71.99906706809998,-1.699883,-3.349488,10.13346,-0.044499,-0.004263,-0.012524,26.285881
72.10558915138245,-1.710657,-3.357868,10.134656,-0.046631,-0.003464,-0.01279,26.294704
72.21661257743835,-1.708263,-3.357868,10.122685,-0.046631,-0.003198,-0.01279,26.288822
72.3261411190033,-1.707066,-3.361459,10.120291,-0.042368,-0.00453,-0.011991,26.288822
72.43398833274841,-1.707066,-3.360262,10.126276,-0.042101,-0.005063,-0.012257,26.285881
72.54455304145813,-1.70108,-3.356671,10.132262,-0.047164,-0.002931,-0.01279,26.288822
72.65480375289917,-1.714248,-3.351882,10.12508,-0.046631,-0.00373,-0.01279,26.285881
72.76209092140198,-1.696292,-3.363853,10.134656,-0.042101,-0.00453,-0.011991,26.282939
72.87199068069458,-1.705869,-3.362656,10.132262,-0.0429,-0.004796,-0.011991,26.297645
72.98191857337952,-1.704672,-3.356671,10.141839,-0.048496,-0.002398,-0.013323,26.291763
73.0890588760376,-1.707066,-3.360262,10.119094,-0.045832,-0.00373,-0.012524,26.294704
73.20009303092957,-1.704672,-3.35308,10.121488,-0.041035,-0.005329,-0.011991,26.300586
73.31006908416748,-1.70108,-3.35308,10.139445,-0.044233,-0.003997,-0.012524,26.300586
73.41709899902344,-1.714248,-3.35308,10.123883,-0.049029,-0.002665,-0.013057,26.30941
73.5279586315155,-1.697489,-3.368642,10.119094,-0.045032,-0.00373,-0.012524,26.291763
73.63741087913513,-1.697489,-3.35308,10.120291,-0.041302,-0.004796,-0.011991,26.285881
73.74507594108582,-1.710657,-3.362656,10.132262,-0.044499,-0.004263,-0.012524,26.291763
73.85503578186035,-1.703474,-3.356671,10.146627,-0.04743,-0.002931,-0.01279,26.291763
73.96492671966553,-1.707066,-3.351882,10.127473,-0.0437,-0.00373,-0.012257,26.288822
74.07615232467651,-1.707066,-3.349488,10.128671,-0.042634,-0.005063,-0.011724,26.285881
74.18328213691711,-1.698686,-3.363853,10.121488,-0.045832,-0.003198,-0.01279,26.282939
74.29359531402588,-1.708263,-3.361459,10.120291,-0.046897,-0.00373,-0.01279,26.300586
74.40348601341248,-1.702277,-3.360262,10.135853,-0.042634,-0.004263,-0.011991,26.300586
74.51078367233276,-1.703474,-3.354277,10.141839,-0.043966,-0.00453,-0.012257,26.297645
74.6204879283905,-1.705869,-3.35308,10.134656,-0.046631,-0.002665,-0.013057,26.291763
74.73107957839966,-1.707066,-3.349488,10.123883,-0.045299,-0.003997,-0.01279,26.300586
74.83854866027832,-1.707066,-3.363853,10.135853,-0.044233,-0.004263,-0.012257,26.288822
74.94915127754211,-1.708263,-3.354277,10.131065,-0.045832,-0.003464,-0.01279,26.291763
75.05905771255493,-1.705869,-3.359065,10.122685,-0.0437,-0.003997,-0.011991,26.285881
75.16623258590698,-1.702277,-3.350685,10.132262,-0.045032,-0.00373,-0.01279,26.297645
75.27643465995789,-1.70946,-3.355474,10.126276,-0.046897,-0.003464,-0.01279,26.300586
75.38708472251892,-1.710657,-3.357868,10.123883,-0.045032,-0.00453,-0.013057,26.294704
75.49364256858826,-1.707066,-3.349488,10.129868,-0.0429,-0.004263,-0.012257,26.297645
75.60449695587158,-1.707066,-3.355474,10.13705,-0.044233,-0.003997,-0.01279,26.291763
75.71462774276733,-1.699883,-3.337517,10.13705,-0.045832,-0.003997,-0.013323,26.294704
75.82126545906067,-1.705869,-3.361459,10.119094,-0.045032,-0.003464,-0.01279,26.291763
75.93208408355713,-1.699883,-3.355474,10.122685,-0.043966,-0.004263,-0.012524,26.285881
76.04209542274475,-1.707066,-3.349488,10.128671,-0.043966,-0.004263,-0.011724,26.288822
76.14909815788269,-1.705869,-3.354277,10.127473,-0.045299,-0.00373,-0.013057,26.282939
76.25966715812683,-1.711854,-3.360262,10.131065,-0.045299,-0.003997,-0.012257,26.288822
76.37006902694702,-1.704672,-3.355474,10.122685,-0.045299,-0.004263,-0.012524,26.294704
76.47679328918457,-1.699883,-3.349488,10.128671,-0.0437,-0.003997,-0.011724,26.297645
76.58766531944275,-1.708263,-3.365051,10.128671,-0.044233,-0.00453,-0.012524,26.288822
76.69813203811646,-1.713051,-3.356671,10.150218,-0.046631,-0.00373,-0.01279,26.297645
76.8047878742218,-1.704672,-3.356671,10.123883,-0.045032,-0.004263,-0.01279,26.303527
76.91506505012512,-1.708263,-3.357868,10.13346,-0.0429,-0.00453,-0.012524,26.288822
77.02506852149963,-1.702277,-3.354277,10.139445,-0.045832,-0.00373,-0.012524,26.294704
77.13608694076538,-1.711854,-3.359065,10.119094,-0.045832,-0.003464,-0.012524,26.300586
77.24268531799316,-1.702277,-3.369839,10.127473,-0.0429,-0.004263,-0.012257,26.297645
77.35325145721436,-1.702277,-3.360262,10.13705,-0.044233,-0.00453,-0.012524,26.288822
77.46409821510315,-1.713051,-3.363853,10.129868,-0.047963,-0.002931,-0.013856,26.288822
77.5710997581482,-1.707066,-3.361459,10.128671,-0.045299,-0.00373,-0.013057,26.288822
77.68108296394348,-1.696292,-3.351882,10.120291,-0.039703,-0.005596,-0.011724,26.288822
77.7910897731781,-1.705869,-3.349488,10.146627,-0.045032,-0.004263,-0.012524,26.282939
77.89813256263733,-1.70946,-3.365051,10.127473,-0.049828,-0.002398,-0.01359,26.285881
78.00809168815613,-1.704672,-3.357868,10.114306,-0.045299,-0.003464,-0.012524,26.285881
78.1190755367279,-1.695095,-3.360262,10.121488,-0.040502,-0.005063,-0.011458,26.294704
78.22607731819153,-1.698686,-3.363853,10.143036,-0.045299,-0.003997,-0.011724,26.294704
78.33608961105347,-1.704672,-3.362656,10.134656,-0.048496,-0.002931,-0.012524,26.291763
78.44659209251404,-1.710657,-3.365051,10.115503,-0.043966,-0.004796,-0.012524,26.300586
78.55372548103333,-1.705869,-3.351882,10.12508,-0.041568,-0.004263,-0.011724,26.288822
78.66414546966553,-1.707066,-3.359065,10.127473,-0.045032,-0.004263,-0.012524,26.291763
78.77459168434143,-1.704672,-3.365051,10.128671,-0.047164,-0.003464,-0.01279,26.291763
78.88108730316162,-1.70108,-3.350685,10.126276,-0.044766,-0.00453,-0.012524,26.285881
78.99208521842957,-1.70108,-3.345897,10.121488,-0.0429,-0.004796,-0.011991,26.294704
79.10229516029358,-1.71784,-3.348291,10.135853,-0.044499,-0.004263,-0.01279,26.303527
79.20917272567749,-1.711854,-3.35308,10.128671,-0.046631,-0.00373,-0.013057,26.294704
79.32008290290833,-1.719037,-3.356671,10.120291,-0.045032,-0.00373,-0.013057,26.306468
79.43006896972656,-1.711854,-3.355474,10.127473,-0.044233,-0.003997,-0.01279,26.288822
79.5370671749115,-1.708263,-3.355474,10.135853,-0.044499,-0.00373,-0.012524,26.297645
79.6470832824707,-1.702277,-3.363853,10.129868,-0.045299,-0.003198,-0.012524,26.303527
79.75771236419678,-1.704672,-3.351882,10.132262,-0.044499,-0.003997,-0.01279,26.285881
79.86509037017822,-1.707066,-3.356671,10.129868,-0.043167,-0.004263,-0.012524,26.294704
79.97504997253418,-1.715445,-3.347094,10.127473,-0.044766,-0.003198,-0.012524,26.294704
80.08520102500916,-1.702277,-3.348291,10.128671,-0.046098,-0.003997,-0.01279,26.288822
80.19207572937012,-1.714248,-3.348291,10.132262,-0.044233,-0.004263,-0.011991,26.291763
80.30246424674988,-1.704672,-3.355474,10.12508,-0.043167,-0.00453,-0.012524,26.285881
80.41250467300415,-1.713051,-3.363853,10.138248,-0.045832,-0.003464,-0.012257,26.294704
80.52375340461731,-1.697489,-3.350685,10.135853,-0.044766,-0.00373,-0.012524,26.285881
80.63008403778076,-1.70108,-3.363853,10.12508,-0.043966,-0.00453,-0.012257,26.291763
80.74108004570007,-1.715445,-3.356671,10.134656,-0.044766,-0.003997,-0.012257,26.288822
80.85111141204834,-1.708263,-3.347094,10.140642,-0.045299,-0.004263,-0.01279,26.297645
80.95821523666382,-1.705869,-3.362656,10.129868,-0.044766,-0.004263,-0.013057,26.285881
81.06877994537354,-1.713051,-3.360262,10.131065,-0.045032,-0.00373,-0.012524,26.288822
81.17874455451965,-1.699883,-3.359065,10.123883,-0.045299,-0.003464,-0.01279,26.288822
81.28627634048462,-1.70108,-3.357868,10.129868,-0.045299,-0.003997,-0.01279,26.279998
81.39630103111267,-1.702277,-3.355474,10.115503,-0.045299,-0.003464,-0.012257,26.282939
81.50632643699646,-1.70108,-3.356671,10.135853,-0.045032,-0.004263,-0.012524,26.277057
81.61435008049011,-1.708263,-3.365051,10.123883,-0.043966,-0.003464,-0.012524,26.288822
81.72371482849121,-1.707066,-3.359065,10.121488,-0.044233,-0.00373,-0.012524,26.285881
81.83473610877991,-1.705869,-3.349488,10.131065,-0.045565,-0.003198,-0.012524,26.279998
81.94126296043396,-1.716643,-3.354277,10.12508,-0.044766,-0.003997,-0.012257,26.274116
82.05128788948059,-1.719037,-3.359065,10.129868,-0.043966,-0.004796,-0.012257,26.285881
82.16223096847534,-1.713051,-3.355474,10.129868,-0.044499,-0.004263,-0.013057,26.285881
82.26981282234192,-1.704672,-3.35308,10.135853,-0.045299,-0.003464,-0.012257,26.279998
82.37982368469238,-1.695095,-3.354277,10.131065,-0.044766,-0.003997,-0.012257,26.279998
82.49022388458252,-1.704672,-3.355474,10.13346,-0.043966,-0.00453,-0.011991,26.285881
82.59692764282227,-1.715445,-3.360262,10.117897,-0.044766,-0.003997,-0.012257,26.288822
82.70726537704468,-1.708263,-3.359065,10.144233,-0.044233,-0.003997,-0.012524,26.277057
82.81782269477844,-1.703474,-3.355474,10.13346,-0.045032,-0.003997,-0.01279,26.277057
82.92491602897644,-1.715445,-3.35308,10.13346,-0.045299,-0.00373,-0.012524,26.268234
83.03526759147644,-1.698686,-3.35308,10.13705,-0.045032,-0.003997,-0.01279,26.279998
83.14507484436035,-1.697489,-3.355474,10.117897,-0.045032,-0.003464,-0.012257,26.291763
83.25211763381958,-1.707066,-3.360262,10.128671,-0.045032,-0.004263,-0.012524,26.279998
83.36312317848206,-1.703474,-3.362656,10.120291,-0.044499,-0.004263,-0.012257,26.291763
83.47290110588074,-1.707066,-3.356671,10.127473,-0.044233,-0.00373,-0.01279,26.288822
83.58362150192261,-1.698686,-3.357868,10.131065,-0.045565,-0.00373,-0.012524,26.277057
83.69061613082886,-1.70108,-3.362656,10.132262,-0.045832,-0.00373,-0.01279,26.274116
83.80107951164246,-1.705869,-3.363853,10.132262,-0.044233,-0.003997,-0.011724,26.291763
83.9110860824585,-1.705869,-3.35308,10.141839,-0.0437,-0.00453,-0.012257,26.285881
84.01829719543457,-1.707066,-3.365051,10.113108,-0.045832,-0.00373,-0.012257,26.288822
84.12909054756165,-1.702277,-3.35308,10.129868,-0.046098,-0.004263,-0.011991,26.297645
84.23928260803223,-1.705869,-3.360262,10.122685,-0.044233,-0.003997,-0.01279,26.288822
84.34632325172424,-1.708263,-3.35308,10.120291,-0.044499,-0.004263,-0.01279,26.285881
84.45632028579712,-1.70108,-3.357868,10.110714,-0.045565,-0.00453,-0.01279,26.279998
84.566321849823,-1.704672,-3.362656,10.128671,-0.045032,-0.003997,-0.01279,26.288822
84.67306780815125,-1.702277,-3.360262,10.13346,-0.043966,-0.003997,-0.011991,26.279998
84.78408169746399,-1.703474,-3.348291,10.134656,-0.044766,-0.004263,-0.012524,26.288822
84.89373350143433,-1.703474,-3.360262,10.122685,-0.045832,-0.00373,-0.012524,26.288822
85.00132465362549,-1.697489,-3.354277,10.12508,-0.045299,-0.00373,-0.01279,26.282939
85.11209654808044,-1.704672,-3.360262,10.126276,-0.043433,-0.004796,-0.012257,26.288822
85.2223129272461,-1.703474,-3.357868,10.140642,-0.044499,-0.00373,-0.012524,26.285881
85.32906770706177,-1.708263,-3.360262,10.13346,-0.045565,-0.003464,-0.012524,26.282939
85.43947672843933,-1.704672,-3.361459,10.115503,-0.045832,-0.00373,-0.013057,26.294704
85.54989457130432,-1.702277,-3.347094,10.120291,-0.044233,-0.00373,-0.012524,26.279998
85.65707778930664,-1.711854,-3.366248,10.109518,-0.044233,-0.004263,-0.012257,26.291763
85.76669669151306,-1.705869,-3.351882,10.127473,-0.046098,-0.003997,-0.012257,26.291763
85.8779046535492,-1.70108,-3.363853,10.135853,-0.046098,-0.003198,-0.012524,26.297645
85.98435664176941,-1.708263,-3.356671,10.128671,-0.0437,-0.00453,-0.012524,26.288822
86.09525489807129,-1.704672,-3.365051,10.123883,-0.044233,-0.00453,-0.011991,26.300586
86.20551300048828,-1.705869,-3.356671,10.143036,-0.046098,-0.002665,-0.01279,26.294704
86.31251907348633,-1.713051,-3.362656,10.13705,-0.046098,-0.003464,-0.01279,26.300586
86.42251539230347,-1.70108,-3.365051,10.12508,-0.044233,-0.00453,-0.011991,26.288822
86.53307580947876,-1.713051,-3.355474,10.132262,-0.0429,-0.004796,-0.012524,26.288822
86.64008092880249,-1.70946,-3.354277,10.129868,-0.044499,-0.003997,-0.011991,26.294704
86.75036883354187,-1.702277,-3.354277,10.135853,-0.045832,-0.003464,-0.012257,26.285881
86.86037111282349,-1.704672,-3.366248,10.13346,-0.045032,-0.003997,-0.01279,26.285881
86.97135472297668,-1.704672,-3.351882,10.138248,-0.044233,-0.003997,-0.012524,26.288822
87.07795119285583,-1.704672,-3.35308,10.119094,-0.044233,-0.003997,-0.012524,26.303527
87.18809747695923,-1.70946,-3.361459,10.128671,-0.045565,-0.003997,-0.012524,26.297645
87.29807996749878,-1.699883,-3.362656,10.13346,-0.045032,-0.00453,-0.01279,26.288822
87.40609312057495,-1.695095,-3.360262,10.121488,-0.0437,-0.004263,-0.012524,26.277057
87.51608943939209,-1.704672,-3.366248,10.121488,-0.043966,-0.004796,-0.011724,26.285881
87.62697720527649,-1.699883,-3.354277,10.12508,-0.045299,-0.00373,-0.012524,26.294704
87.73354864120483,-1.710657,-3.362656,10.1167,-0.046364,-0.003198,-0.013057,26.285881
87.8440752029419,-1.705869,-3.356671,10.122685,-0.044766,-0.004263,-0.012257,26.282939
87.95405411720276,-1.699883,-3.362656,10.127473,-0.0437,-0.003997,-0.012524,26.285881
88.06128191947937,-1.691504,-3.361459,10.131065,-0.044766,-0.00373,-0.012524,26.288822
88.17210412025452,-1.702277,-3.363853,10.13346,-0.045032,-0.00453,-0.012257,26.285881
88.28208589553833,-1.695095,-3.35308,10.13705,-0.042634,-0.00453,-0.012524,26.288822
88.38909554481506,-1.704672,-3.357868,10.12508,-0.043433,-0.00453,-0.012257,26.288822
88.49923467636108,-1.713051,-3.360262,10.128671,-0.046631,-0.002931,-0.013057,26.288822
88.61009478569031,-1.704672,-3.361459,10.111911,-0.045299,-0.003464,-0.012524,26.297645
88.7167296409607,-1.705869,-3.361459,10.123883,-0.042634,-0.00453,-0.012257,26.300586
88.82708287239075,-1.707066,-3.357868,10.123883,-0.043433,-0.00453,-0.012524,26.291763
88.93710494041443,-1.708263,-3.355474,10.135853,-0.045565,-0.003464,-0.012524,26.291763
89.04409146308899,-1.704672,-3.357868,10.13346,-0.045832,-0.004263,-0.01279,26.288822
89.15483903884888,-1.705869,-3.357868,10.132262,-0.043966,-0.00373,-0.012257,26.282939
89.2650671005249,-1.711854,-3.348291,10.134656,-0.044233,-0.003997,-0.013057,26.285881
89.37185978889465,-1.703474,-3.349488,10.13346,-0.046098,-0.002665,-0.013057,26.288822
89.48214340209961,-1.711854,-3.357868,10.119094,-0.045565,-0.00373,-0.012257,26.288822
89.59300684928894,-1.704672,-3.361459,10.120291,-0.044233,-0.00373,-0.012524,26.291763
89.70008707046509,-1.711854,-3.361459,10.128671,-0.043966,-0.004796,-0.01279,26.291763
89.81007266044617,-1.708263,-3.349488,10.123883,-0.045299,-0.003464,-0.012257,26.300586
89.9203679561615,-1.708263,-3.367445,10.13346,-0.046631,-0.003997,-0.012524,26.303527
90.03128695487976,-1.708263,-3.354277,10.12508,-0.045032,-0.004263,-0.012257,26.288822
90.1380341053009,-1.70108,-3.356671,10.122685,-0.043433,-0.004263,-0.012257,26.306468
90.2485740184784,-1.703474,-3.357868,10.113108,-0.043167,-0.003464,-0.012524,26.291763
90.35810494422913,-1.713051,-3.35308,10.126276,-0.045032,-0.003464,-0.012524,26.291763
90.4656183719635,-1.710657,-3.361459,10.135853,-0.044766,-0.003997,-0.01279,26.297645
90.57648491859436,-1.710657,-3.359065,10.119094,-0.044766,-0.004263,-0.012524,26.291763
90.68617725372314,-1.710657,-3.362656,10.134656,-0.044499,-0.00373,-0.012524,26.297645
90.79320311546326,-1.702277,-3.355474,10.13346,-0.044499,-0.00373,-0.012524,26.294704
90.903733253479,-1.70108,-3.35308,10.132262,-0.045032,-0.003997,-0.011991,26.288822
91.01375794410706,-1.698686,-3.363853,10.123883,-0.045032,-0.003464,-0.012524,26.288822
91.12078905105591,-1.710657,-3.359065,10.135853,-0.044233,-0.004263,-0.01279,26.282939
91.23181366920471,-1.708263,-3.359065,10.126276,-0.044233,-0.003997,-0.012524,26.291763
91.34150671958923,-1.707066,-3.350685,10.12508,-0.044766,-0.003997,-0.01279,26.300586
91.44900918006897,-1.70108,-3.359065,10.126276,-0.044766,-0.003997,-0.01279,26.294704
91.55954480171204,-1.707066,-3.351882,10.12508,-0.045032,-0.003997,-0.012257,26.285881
91.66949653625488,-1.710657,-3.354277,10.134656,-0.044766,-0.00373,-0.012524,26.291763
91.77630400657654,-1.705869,-3.355474,10.119094,-0.044766,-0.004263,-0.012257,26.285881
91.88682913780212,-1.707066,-3.366248,10.131065,-0.045832,-0.00373,-0.012524,26.294704
91.99749803543091,-1.704672,-3.359065,10.134656,-0.045032,-0.00373,-0.01279,26.282939
92.10452318191528,-1.710657,-3.338714,10.122685,-0.043966,-0.003997,-0.012524,26.294704
92.21515464782715,-1.70108,-3.351882,10.10832,-0.044766,-0.00373,-0.012524,26.288822
92.32507491111755,-1.705869,-3.359065,10.13705,-0.045565,-0.003198,-0.012524,26.282939
92.43209099769592,-1.70108,-3.363853,10.129868,-0.044499,-0.004263,-0.012524,26.279998
92.54272389411926,-1.708263,-3.355474,10.13705,-0.043167,-0.004263,-0.012524,26.279998
92.65309047698975,-1.695095,-3.357868,10.135853,-0.045032,-0.003464,-0.01279,26.279998
92.7600929737091,-1.705869,-3.360262,10.120291,-0.045299,-0.003997,-0.012524,26.282939
92.87004566192627,-1.699883,-3.359065,10.129868,-0.044233,-0.00373,-0.012257,26.288822
92.98059797286987,-1.695095,-3.356671,10.127473,-0.045032,-0.003198,-0.012257,26.297645
93.09152126312256,-1.70946,-3.365051,10.140642,-0.045299,-0.003997,-0.013057,26.282939
93.19809889793396,-1.710657,-3.362656,10.129868,-0.044499,-0.004263,-0.012524,26.274116
93.30853843688965,-1.720234,-3.360262,10.122685,-0.0437,-0.003997,-0.012257,26.274116
93.41910481452942,-1.714248,-3.355474,10.141839,-0.0437,-0.00453,-0.012524,26.268234
93.52555537223816,-1.703474,-3.363853,10.134656,-0.045832,-0.003464,-0.012524,26.274116
93.63610076904297,-1.703474,-3.360262,10.13346,-0.045832,-0.00373,-0.012524,26.271175
93.74668765068054,-1.699883,-3.35308,10.13705,-0.044233,-0.003997,-0.011991,26.277057
93.85381889343262,-1.70108,-3.350685,10.135853,-0.0437,-0.005063,-0.012257,26.282939
93.96413087844849,-1.699883,-3.359065,10.131065,-0.045299,-0.003997,-0.01279,26.274116
94.07410025596619,-1.707066,-3.350685,10.14543,-0.045565,-0.004263,-0.012524,26.279998
94.1810953617096,-1.705869,-3.354277,10.123883,-0.044766,-0.004263,-0.012524,26.274116
94.2913269996643,-1.698686,-3.343503,10.126276,-0.043966,-0.004263,-0.012524,26.285881
94.40140056610107,-1.707066,-3.349488,10.120291,-0.044233,-0.00453,-0.012524,26.277057
94.50873231887817,-1.703474,-3.359065,10.127473,-0.045032,-0.00453,-0.012524,26.277057
94.61964011192322,-1.70108,-3.357868,10.123883,-0.045299,-0.003464,-0.013057,26.285881
94.72914934158325,-1.708263,-3.347094,10.135853,-0.045032,-0.003997,-0.01279,26.274116
94.8365216255188,-1.707066,-3.366248,10.132262,-0.044766,-0.00373,-0.012257,26.274116
94.94697403907776,-1.708263,-3.363853,10.12508,-0.044233,-0.003997,-0.012524,26.262351
95.05683851242065,-1.705869,-3.363853,10.119094,-0.045299,-0.00373,-0.013057,26.274116
95.16417837142944,-1.708263,-3.350685,10.139445,-0.044766,-0.004263,-0.01279,26.277057
95.27474546432495,-1.704672,-3.348291,10.135853,-0.043966,-0.00453,-0.012257,26.282939
95.38503861427307,-1.70946,-3.357868,10.146627,-0.044766,-0.004263,-0.012524,26.274116
95.49229097366333,-1.714248,-3.365051,10.139445,-0.045299,-0.00373,-0.013057,26.285881
95.60228252410889,-1.702277,-3.348291,10.121488,-0.043966,-0.003997,-0.012524,26.282939
95.71309614181519,-1.705869,-3.351882,10.126276,-0.045032,-0.004263,-0.012257,26.285881
95.82309985160828,-1.704672,-3.363853,10.117897,-0.046098,-0.003997,-0.013323,26.274116
95.93010354042053,-1.703474,-3.360262,10.1167,-0.044233,-0.005063,-0.012524,26.282939
96.04009079933167,-1.696292,-3.363853,10.132262,-0.0429,-0.004796,-0.012524,26.265293
96.15092897415161,-1.699883,-3.354277,10.143036,-0.045565,-0.003464,-0.012524,26.282939
96.2582426071167,-1.714248,-3.359065,10.129868,-0.047164,-0.00373,-0.01359,26.274116
96.36812138557434,-1.704672,-3.350685,10.132262,-0.043966,-0.003997,-0.012524,26.288822
96.47918748855591,-1.70108,-3.350685,10.132262,-0.043167,-0.00453,-0.012524,26.291763
96.58610200881958,-1.698686,-3.348291,10.15381,-0.044499,-0.003997,-0.011991,26.277057
96.69622302055359,-1.713051,-3.357868,10.131065,-0.045565,-0.004263,-0.013057,26.282939
96.80611324310303,-1.70946,-3.357868,10.13705,-0.045032,-0.003464,-0.01279,26.285881
96.91309785842896,-1.707066,-3.354277,10.143036,-0.044233,-0.003464,-0.012257,26.268234
97.02327585220337,-1.716643,-3.360262,10.13346,-0.045565,-0.003997,-0.011991,26.279998
97.13436126708984,-1.708263,-3.35308,10.128671,-0.045832,-0.003997,-0.013057,26.271175
97.24179005622864,-1.70108,-3.350685,10.126276,-0.044766,-0.003997,-0.01279,26.262351
97.35181450843811,-1.70946,-3.354277,10.135853,-0.0437,-0.00453,-0.01279,26.271175
97.46234440803528,-1.698686,-3.366248,10.12508,-0.044233,-0.004263,-0.012257,26.279998
97.56836986541748,-1.720234,-3.362656,10.119094,-0.045832,-0.003997,-0.012257,26.279998
97.67939400672913,-1.705869,-3.363853,10.13705,-0.045299,-0.003464,-0.012524,26.279998
97.78929996490479,-1.707066,-3.360262,10.123883,-0.044766,-0.002931,-0.012524,26.279998
97.89679026603699,-1.702277,-3.356671,10.139445,-0.0437,-0.004263,-0.012257,26.279998
98.00732088088989,-1.696292,-3.357868,10.134656,-0.044233,-0.004263,-0.01279,26.285881
98.11734986305237,-1.702277,-3.35308,10.129868,-0.045032,-0.003464,-0.012524,26.291763
98.22437119483948,-1.705869,-3.345897,10.119094,-0.044499,-0.00453,-0.01279,26.291763
98.33468079566956,-1.704672,-3.362656,10.14543,-0.044499,-0.00453,-0.012524,26.282939
98.44492554664612,-1.702277,-3.355474,10.135853,-0.044766,-0.003997,-0.013057,26.282939
98.55168724060059,-1.713051,-3.357868,10.126276,-0.044499,-0.004263,-0.012257,26.282939
98.6627242565155,-1.703474,-3.359065,10.131065,-0.044766,-0.004263,-0.012524,26.277057
98.77287030220032,-1.713051,-3.357868,10.119094,-0.044766,-0.003464,-0.012524,26.274116
98.88026118278503,-1.716643,-3.354277,10.12508,-0.043966,-0.00453,-0.01279,26.274116
98.99010920524597,-1.70946,-3.356671,10.131065,-0.044499,-0.00373,-0.01279,26.279998
99.10038423538208,-1.705869,-3.355474,10.121488,-0.045299,-0.00373,-0.012524,26.279998
99.21104001998901,-1.704672,-3.361459,10.134656,-0.044233,-0.003997,-0.01279,26.279998
99.31741237640381,-1.697489,-3.355474,10.126276,-0.044233,-0.00453,-0.012524,26.279998
99.42811822891235,-1.707066,-3.338714,10.127473,-0.044499,-0.00453,-0.012524,26.282939
99.53807187080383,-1.710657,-3.366248,10.13346,-0.044499,-0.004263,-0.012524,26.271175
99.64572143554688,-1.699883,-3.355474,10.128671,-0.045299,-0.003464,-0.012524,26.268234
99.75622248649597,-1.710657,-3.35308,10.135853,-0.045832,-0.00373,-0.01279,26.256469
99.8666021823883,-1.708263,-3.359065,10.13346,-0.045032,-0.00373,-0.01279,26.274116
99.97308039665222,-1.703474,-3.362656,10.127473,-0.043433,-0.00453,-0.011991,26.271175
100.08307909965515,-1.708263,-3.350685,10.119094,-0.0437,-0.004263,-0.012257,26.271175
100.19408249855042,-1.70946,-3.360262,10.123883,-0.045299,-0.00373,-0.013057,26.271175
100.3008873462677,-1.705869,-3.366248,10.120291,-0.045565,-0.003997,-0.01279,26.277057
100.41109991073608,-1.70946,-3.350685,10.134656,-0.043966,-0.00453,-0.012257,26.282939
100.52183651924133,-1.70946,-3.354277,10.141839,-0.044499,-0.00373,-0.012524,26.274116
100.62907195091248,-1.70946,-3.3447,10.132262,-0.045565,-0.00373,-0.013057,26.274116
100.73931574821472,-1.702277,-3.363853,10.123883,-0.045032,-0.003997,-0.01279,26.271175
100.8491358757019,-1.705869,-3.35308,10.127473,-0.043433,-0.004796,-0.012257,26.262351
100.95633316040039,-1.710657,-3.363853,10.13346,-0.045299,-0.004263,-0.012524,26.277057
101.06709790229797,-1.707066,-3.357868,10.127473,-0.046098,-0.00373,-0.012257,26.271175
101.1768069267273,-1.703474,-3.35308,10.141839,-0.044766,-0.003997,-0.01279,26.277057
101.28483510017395,-1.703474,-3.359065,10.143036,-0.043433,-0.00453,-0.011991,26.268234
101.39506840705872,-1.70108,-3.355474,10.119094,-0.045299,-0.00373,-0.012524,26.277057
101.50509524345398,-1.707066,-3.349488,10.123883,-0.046364,-0.003464,-0.013057,26.277057
101.61207556724548,-1.70108,-3.360262,10.122685,-0.044233,-0.004263,-0.012524,26.285881
101.72191667556763,-1.70946,-3.355474,10.126276,-0.0429,-0.003997,-0.01279,26.285881
101.8328104019165,-1.704672,-3.354277,10.122685,-0.045565,-0.004263,-0.012524,26.277057
101.9400999546051,-1.70946,-3.35308,10.132262,-0.046631,-0.003464,-0.013057,26.274116
102.0499382019043,-1.711854,-3.35308,10.12508,-0.044766,-0.004263,-0.012257,26.279998
102.16079831123352,-1.70108,-3.361459,10.109518,-0.042634,-0.004263,-0.012257,26.274116
102.26793575286865,-1.692701,-3.35308,10.13705,-0.0437,-0.003997,-0.01279,26.282939
102.37779331207275,-1.702277,-3.359065,10.128671,-0.046364,-0.003464,-0.012524,26.279998
102.48833465576172,-1.703474,-3.361459,10.123883,-0.044499,-0.004263,-0.01279,26.274116
102.59855365753174,-1.713051,-3.35308,10.126276,-0.043433,-0.00453,-0.012257,26.282939
102.70506882667542,-1.708263,-3.360262,10.128671,-0.044499,-0.00373,-0.01279,26.277057
102.81594204902649,-1.707066,-3.351882,10.134656,-0.046098,-0.00373,-0.012524,26.282939
102.92608404159546,-1.70108,-3.356671,10.123883,-0.045565,-0.003997,-0.012524,26.282939
103.03338503837585,-1.707066,-3.361459,10.140642,-0.044766,-0.004263,-0.012257,26.274116
103.14409446716309,-1.70108,-3.350685,10.12508,-0.044766,-0.004263,-0.013057,26.277057
103.25408601760864,-1.70946,-3.357868,10.141839,-0.045832,-0.004263,-0.013057,26.268234
103.36077666282654,-1.707066,-3.355474,10.114306,-0.044766,-0.00373,-0.011991,26.274116
103.47112703323364,-1.704672,-3.351882,10.13346,-0.043966,-0.005063,-0.012524,26.282939
103.5811026096344,-1.698686,-3.349488,10.131065,-0.044499,-0.003997,-0.012257,26.274116
103.68913245201111,-1.70108,-3.350685,10.12508,-0.044766,-0.003198,-0.01279,26.274116
103.79914021492004,-1.697489,-3.35308,10.121488,-0.044766,-0.004263,-0.01279,26.279998
103.90901136398315,-1.704672,-3.363853,10.114306,-0.044766,-0.003997,-0.012257,26.277057
104.0161292552948,-1.705869,-3.360262,10.131065,-0.044233,-0.004263,-0.013057,26.282939
104.12707281112671,-1.710657,-3.350685,10.138248,-0.044499,-0.004263,-0.011991,26.285881
104.2371129989624,-1.711854,-3.349488,10.134656,-0.044499,-0.00373,-0.01279,26.277057
104.34391808509827,-1.70946,-3.356671,10.10832,-0.045299,-0.003464,-0.012257,26.268234
104.45486044883728,-1.704672,-3.359065,10.132262,-0.044499,-0.003997,-0.012524,26.268234
104.56498408317566,-1.707066,-3.354277,10.128671,-0.043966,-0.004796,-0.011458,26.268234
104.67203330993652,-1.710657,-3.348291,10.129868,-0.044499,-0.004263,-0.012524,26.271175
104.78243899345398,-1.708263,-3.351882,10.12508,-0.045565,-0.00373,-0.011991,26.277057
104.89287185668945,-1.702277,-3.359065,10.127473,-0.044766,-0.00373,-0.012524,26.268234
104.99938869476318,-1.707066,-3.362656,10.135853,-0.043966,-0.004263,-0.01279,26.265293
105.11011695861816,-1.699883,-3.357868,10.119094,-0.044766,-0.003464,-0.01279,26.271175
105.22010135650635,-1.704672,-3.356671,10.127473,-0.045565,-0.00373,-0.012257,26.274116
105.32809710502625,-1.707066,-3.355474,10.131065,-0.045032,-0.00373,-0.011991,26.271175
105.43793225288391,-1.702277,-3.359065,10.129868,-0.044233,-0.00453,-0.012524,26.268234
105.54846143722534,-1.707066,-3.343503,10.138248,-0.044499,-0.004263,-0.011991,26.271175
105.6588613986969,-1.71784,-3.356671,10.143036,-0.045832,-0.003464,-0.013057,26.265293
105.76509094238281,-1.702277,-3.361459,10.140642,-0.045299,-0.003997,-0.012524,26.262351
105.87593150138855,-1.70946,-3.357868,10.122685,-0.044766,-0.003997,-0.012257,26.268234
105.98621654510498,-1.711854,-3.356671,10.12508,-0.044499,-0.00453,-0.01279,26.274116
106.09322500228882,-1.705869,-3.350685,10.121488,-0.044766,-0.003997,-0.012257,26.277057
106.20403814315796,-1.707066,-3.363853,10.13346,-0.045299,-0.003997,-0.012257,26.268234
106.3140275478363,-1.714248,-3.35308,10.138248,-0.044499,-0.003997,-0.012257,26.277057
106.4210696220398,-1.703474,-3.355474,10.138248,-0.0437,-0.004263,-0.011991,26.268234
106.53102111816406,-1.702277,-3.35308,10.113108,-0.044499,-0.004263,-0.011724,26.279998
106.6410973072052,-1.704672,-3.357868,10.128671,-0.044766,-0.00373,-0.012524,26.274116
106.74883127212524,-1.711854,-3.356671,10.13705,-0.044233,-0.00373,-0.01279,26.274116
106.85905480384827,-1.707066,-3.360262,10.132262,-0.044233,-0.003997,-0.012524,26.271175
106.96908473968506,-1.699883,-3.355474,10.138248,-0.045565,-0.004263,-0.01279,26.274116
107.07634949684143,-1.703474,-3.347094,10.138248,-0.045299,-0.00373,-0.012524,26.274116
107.18707251548767,-1.702277,-3.360262,10.131065,-0.0437,-0.00453,-0.01279,26.282939
107.29708743095398,-1.705869,-3.363853,10.119094,-0.045032,-0.003997,-0.012524,26.274116
107.40394735336304,-1.707066,-3.354277,10.13346,-0.045565,-0.00453,-0.012257,26.271175
107.5145013332367,-1.691504,-3.35308,10.13346,-0.044499,-0.003464,-0.011724,26.271175
107.62482070922852,-1.703474,-3.354277,10.121488,-0.043966,-0.00373,-0.01279,26.262351
107.73184323310852,-1.711854,-3.365051,10.144233,-0.044233,-0.00373,-0.012257,26.268234
107.84251141548157,-1.698686,-3.349488,10.134656,-0.045832,-0.00373,-0.012524,26.274116
107.95306658744812,-1.707066,-3.357868,10.128671,-0.044499,-0.003464,-0.01279,26.271175
108.0600643157959,-1.713051,-3.35308,10.126276,-0.043966,-0.00453,-0.01279,26.274116
108.16986989974976,-1.707066,-3.356671,10.129868,-0.044499,-0.003997,-0.011724,26.279998
108.28010439872742,-1.696292,-3.354277,10.132262,-0.045565,-0.00373,-0.012524,26.279998
108.39011287689209,-1.70946,-3.360262,10.13705,-0.044233,-0.004263,-0.012524,26.279998
108.49810838699341,-1.698686,-3.360262,10.120291,-0.043433,-0.003997,-0.011991,26.277057
108.60809803009033,-1.70108,-3.361459,10.120291,-0.0437,-0.004796,-0.012257,26.279998
108.71894478797913,-1.703474,-3.362656,10.135853,-0.044233,-0.003997,-0.012524,26.282939
108.82554149627686,-1.699883,-3.351882,10.127473,-0.044766,-0.004263,-0.011991,26.277057
108.9362416267395,-1.70108,-3.354277,10.13346,-0.043433,-0.003997,-0.012524,26.279998
109.04595875740051,-1.703474,-3.357868,10.143036,-0.043433,-0.004796,-0.012524,26.274116
109.1530692577362,-1.70108,-3.361459,10.127473,-0.044766,-0.00373,-0.012524,26.268234
109.26354455947876,-1.713051,-3.357868,10.13346,-0.044766,-0.003198,-0.012257,26.271175
109.37397146224976,-1.715445,-3.354277,10.128671,-0.045032,-0.00453,-0.011991,26.262351
109.48109865188599,-1.702277,-3.351882,10.12508,-0.043433,-0.003997,-0.01279,26.277057
109.59107089042664,-1.705869,-3.359065,10.120291,-0.044499,-0.003997,-0.012524,26.274116
109.70200228691101,-1.707066,-3.348291,10.129868,-0.045832,-0.003198,-0.012524,26.285881
109.80830383300781,-1.710657,-3.349488,10.122685,-0.045299,-0.003997,-0.013057,26.294704
109.91848421096802,-1.70946,-3.350685,10.141839,-0.043966,-0.00453,-0.012524,26.279998
110.0295581817627,-1.702277,-3.361459,10.115503,-0.043966,-0.004263,-0.011991,26.285881
110.13608503341675,-1.704672,-3.362656,10.129868,-0.045299,-0.003464,-0.01279,26.279998
110.24705410003662,-1.696292,-3.357868,10.12508,-0.045299,-0.004263,-0.012257,26.274116
110.35708236694336,-1.704672,-3.356671,10.1167,-0.043966,-0.004263,-0.012257,26.285881
110.4640200138092,-1.693898,-3.351882,10.138248,-0.044499,-0.003997,-0.012257,26.279998
110.57458543777466,-1.696292,-3.357868,10.131065,-0.045565,-0.003997,-0.012524,26.274116
110.68509435653687,-1.699883,-3.351882,10.127473,-0.044766,-0.00453,-0.012524,26.279998
110.79160189628601,-1.693898,-3.361459,10.127473,-0.043966,-0.005063,-0.012257,26.277057
110.90216946601868,-1.704672,-3.356671,10.150218,-0.045565,-0.004263,-0.012257,26.277057
111.01258730888367,-1.711854,-3.356671,10.114306,-0.046098,-0.003997,-0.011991,26.277057
111.1200180053711,-1.716643,-3.355474,10.134656,-0.045032,-0.003997,-0.013057,26.271175
111.23021793365479,-1.708263,-3.354277,10.13705,-0.044499,-0.004263,-0.013057,26.277057
111.34004092216492,-1.70108,-3.349488,10.132262,-0.045565,-0.003464,-0.012524,26.277057
111.45008754730225,-1.702277,-3.345897,10.132262,-0.044766,-0.004263,-0.012524,26.271175
111.55737400054932,-1.708263,-3.354277,10.143036,-0.044499,-0.004263,-0.012524,26.268234
111.66802287101746,-1.703474,-3.359065,10.114306,-0.044233,-0.004796,-0.012257,26.282939
111.77862429618835,-1.702277,-3.349488,10.12508,-0.045299,-0.003198,-0.012257,26.282939
111.88562512397766,-1.698686,-3.362656,10.13705,-0.046098,-0.003464,-0.013057,26.279998
111.99611306190491,-1.707066,-3.356671,10.128671,-0.044499,-0.00453,-0.012524,26.279998
112.10612106323242,-1.702277,-3.359065,10.120291,-0.0437,-0.00373,-0.012524,26.288822
112.2130618095398,-1.70946,-3.355474,10.129868,-0.044233,-0.003997,-0.012524,26.274116
112.32382392883301,-1.704672,-3.363853,10.12508,-0.045032,-0.003464,-0.012257,26.285881
112.43404746055603,-1.70946,-3.360262,10.1167,-0.043966,-0.003464,-0.012524,26.268234
112.54107117652893,-1.708263,-3.366248,10.121488,-0.044233,-0.004263,-0.012257,26.277057
112.65110731124878,-1.70946,-3.359065,10.135853,-0.044499,-0.00373,-0.012257,26.274116
112.76210713386536,-1.704672,-3.354277,10.128671,-0.044766,-0.003997,-0.012524,26.277057
112.86885786056519,-1.711854,-3.362656,10.13346,-0.044499,-0.004263,-0.012257,26.282939
112.97907447814941,-1.711854,-3.354277,10.132262,-0.044499,-0.003997,-0.012257,26.279998
113.08966565132141,-1.705869,-3.360262,10.122685,-0.045032,-0.00373,-0.012524,26.271175
113.19570469856262,-1.70108,-3.35308,10.13346,-0.044499,-0.003464,-0.012524,26.277057
113.30672907829285,-1.704672,-3.35308,10.13705,-0.045032,-0.003997,-0.013057,26.279998
113.41675448417664,-1.710657,-3.355474,10.135853,-0.045032,-0.003464,-0.013057,26.274116
113.52395486831665,-1.713051,-3.3447,10.135853,-0.044499,-0.00453,-0.01279,26.285881
113.63497924804688,-1.715445,-3.3447,10.143036,-0.044499,-0.00453,-0.012257,26.285881
113.74500799179077,-1.70946,-3.359065,10.135853,-0.044233,-0.003997,-0.012524,26.274116
113.85203170776367,-1.713051,-3.354277,10.1167,-0.044766,-0.003997,-0.01279,26.285881
113.96191215515137,-1.70946,-3.360262,10.123883,-0.044766,-0.003198,-0.012524,26.282939
114.0719404220581,-1.704672,-3.360262,10.14543,-0.045032,-0.003464,-0.012257,26.271175
114.17896676063538,-1.70108,-3.349488,10.139445,-0.045299,-0.00373,-0.012524,26.279998
114.28997468948364,-1.711854,-3.355474,10.134656,-0.044499,-0.003997,-0.012524,26.285881
114.40010952949524,-1.714248,-3.348291,10.127473,-0.044499,-0.004263,-0.01279,26.277057
114.51111030578613,-1.705869,-3.354277,10.129868,-0.045032,-0.003997,-0.012524,26.282939
114.61805629730225,-1.702277,-3.361459,10.140642,-0.045032,-0.003997,-0.012524,26.282939
114.72811722755432,-1.707066,-3.349488,10.140642,-0.044499,-0.004796,-0.011991,26.285881
114.83871388435364,-1.708263,-3.361459,10.128671,-0.044233,-0.004263,-0.012524,26.277057
114.94506931304932,-1.707066,-3.355474,10.132262,-0.045032,-0.003198,-0.01279,26.288822
115.05569911003113,-1.704672,-3.350685,10.13346,-0.045032,-0.003997,-0.013057,26.279998
115.16611504554749,-1.704672,-3.359065,10.132262,-0.043966,-0.004263,-0.012524,26.277057
115.27286958694458,-1.70108,-3.35308,10.143036,-0.043966,-0.003997,-0.011724,26.277057
115.38311123847961,-1.707066,-3.351882,10.132262,-0.044766,-0.00373,-0.012257,26.282939
115.49406433105469,-1.705869,-3.361459,10.128671,-0.045032,-0.00373,-0.012257,26.291763
115.60037875175476,-1.705869,-3.350685,10.120291,-0.044233,-0.003997,-0.01279,26.277057
115.71125483512878,-1.705869,-3.351882,10.140642,-0.0437,-0.003997,-0.012524,26.279998
115.82171249389648,-1.697489,-3.360262,10.13705,-0.044766,-0.003997,-0.01279,26.282939
115.92798233032227,-1.703474,-3.359065,10.140642,-0.045032,-0.003997,-0.012257,26.285881
116.03941297531128,-1.714248,-3.355474,10.132262,-0.043966,-0.00373,-0.01279,26.274116
116.14918899536133,-1.70108,-3.348291,10.123883,-0.044499,-0.003464,-0.012524,26.277057
116.25608348846436,-1.702277,-3.357868,10.134656,-0.045299,-0.003997,-0.01279,26.271175
116.36654877662659,-1.699883,-3.361459,10.134656,-0.045565,-0.003997,-0.013323,26.274116
116.47698998451233,-1.704672,-3.356671,10.129868,-0.043966,-0.00373,-0.012257,26.265293
116.5838360786438,-1.707066,-3.35308,10.128671,-0.044233,-0.004263,-0.01279,26.277057
116.69432330131531,-1.692701,-3.351882,10.131065,-0.045565,-0.00373,-0.012524,26.277057
116.804114818573,-1.699883,-3.360262,10.126276,-0.045299,-0.003198,-0.012524,26.271175
116.91212964057922,-1.707066,-3.359065,10.104729,-0.043966,-0.003997,-0.012257,26.277057
117.02207803726196,-1.703474,-3.356671,10.123883,-0.0437,-0.00373,-0.013057,26.282939
117.13283324241638,-1.707066,-3.355474,10.123883,-0.045299,-0.003464,-0.01279,26.279998
117.23984861373901,-1.698686,-3.366248,10.123883,-0.044766,-0.00373,-0.011991,26.277057
117.3492968082428,-1.704672,-3.357868,10.131065,-0.043966,-0.004796,-0.012257,26.277057
117.46018934249878,-1.707066,-3.350685,10.135853,-0.044499,-0.004796,-0.012257,26.274116
117.56707882881165,-1.713051,-3.361459,10.123883,-0.045032,-0.003198,-0.012257,26.279998
117.6781005859375,-1.704672,-3.354277,10.134656,-0.044766,-0.003997,-0.012524,26.274116
117.78811264038086,-1.707066,-3.355474,10.12508,-0.044766,-0.00453,-0.012524,26.274116
117.89807987213135,-1.702277,-3.35308,10.134656,-0.044233,-0.003997,-0.011991,26.279998
118.00518202781677,-1.713051,-3.355474,10.13346,-0.044499,-0.004263,-0.012257,26.277057
118.1157820224762,-1.707066,-3.357868,10.122685,-0.044499,-0.004263,-0.012257,26.279998
118.22607350349426,-1.698686,-3.350685,10.139445,-0.044233,-0.003997,-0.012524,26.274116
118.33312797546387,-1.703474,-3.347094,10.131065,-0.045299,-0.00373,-0.012524,26.282939
118.44336605072021,-1.716643,-3.357868,10.13346,-0.045299,-0.003464,-0.012257,26.274116
118.55384516716003,-1.70946,-3.360262,10.131065,-0.044766,-0.00373,-0.012524,26.274116
118.66080927848816,-1.70946,-3.356671,10.128671,-0.044233,-0.004263,-0.012257,26.271175
118.77107000350952,-1.703474,-3.362656,10.139445,-0.044766,-0.003997,-0.01279,26.265293
118.88111329078674,-1.711854,-3.354277,10.128671,-0.045565,-0.003997,-0.012524,26.268234
118.98824429512024,-1.70946,-3.347094,10.132262,-0.045032,-0.003997,-0.01279,26.262351
119.09912729263306,-1.707066,-3.356671,10.135853,-0.044499,-0.003997,-0.011991,26.279998
119.20911717414856,-1.699883,-3.355474,10.140642,-0.044233,-0.004263,-0.012524,26.274116
119.31604146957397,-1.696292,-3.359065,10.129868,-0.045032,-0.00373,-0.01279,26.262351
119.42692875862122,-1.711854,-3.354277,10.122685,-0.044233,-0.003997,-0.012524,26.265293
119.53727340698242,-1.705869,-3.360262,10.135853,-0.043966,-0.003997,-0.012257,26.256469
119.64411759376526,-1.707066,-3.354277,10.13705,-0.044766,-0.00453,-0.012257,26.268234
119.75426054000854,-1.716643,-3.362656,10.131065,-0.044766,-0.003997,-0.012257,26.271175
119.86482572555542,-1.70108,-3.357868,10.12508,-0.044766,-0.00373,-0.012257,26.268234
119.97158813476562,-1.708263,-3.350685,10.135853,-0.045299,-0.004263,-0.01279,26.268234
120.08224153518677,-1.703474,-3.354277,10.12508,-0.045032,-0.00373,-0.012524,26.282939
120.19255709648132,-1.708263,-3.360262,10.123883,-0.045032,-0.004263,-0.012524,26.25941
120.29929566383362,-1.699883,-3.356671,10.129868,-0.044766,-0.003997,-0.012257,26.262351
120.40933060646057,-1.704672,-3.355474,10.1167,-0.045299,-0.00373,-0.012257,26.274116
120.52007293701172,-1.70108,-3.355474,10.122685,-0.045565,-0.002931,-0.012524,26.271175
120.63086032867432,-1.704672,-3.349488,10.123883,-0.045032,-0.00373,-0.012257,26.271175
120.73728895187378,-1.699883,-3.357868,10.134656,-0.044499,-0.003997,-0.012257,26.271175
120.84785604476929,-1.707066,-3.35308,10.131065,-0.044233,-0.004263,-0.011991,26.268234
120.95842337608337,-1.70108,-3.357868,10.134656,-0.045032,-0.00373,-0.012257,26.268234
121.06531095504761,-1.704672,-3.366248,10.122685,-0.044766,-0.00373,-0.012257,26.268234
121.17586612701416,-1.714248,-3.355474,10.128671,-0.044233,-0.003997,-0.012257,26.279998
121.2862868309021,-1.699883,-3.357868,10.132262,-0.044766,-0.00373,-0.012257,26.268234
121.39276051521301,-1.713051,-3.361459,10.131065,-0.044766,-0.004263,-0.012524,26.274116
121.50330424308777,-1.704672,-3.350685,10.12508,-0.044499,-0.003997,-0.012524,26.271175
121.61386942863464,-1.703474,-3.359065,10.126276,-0.044766,-0.00373,-0.012257,26.265293
121.72111392021179,-1.707066,-3.360262,10.132262,-0.045032,-0.004263,-0.012524,26.265293
121.83113098144531,-1.703474,-3.356671,10.120291,-0.044766,-0.00373,-0.012524,26.262351
121.94111752510071,-1.705869,-3.363853,10.138248,-0.045032,-0.004263,-0.012524,26.274116
122.04807424545288,-1.707066,-3.355474,10.135853,-0.044766,-0.00373,-0.01279,26.271175
122.15832471847534,-1.697489,-3.35308,10.13346,-0.044233,-0.00373,-0.012257,26.25941
122.26940441131592,-1.704672,-3.359065,10.134656,-0.044233,-0.004263,-0.013057,26.271175
122.3766577243805,-1.698686,-3.342306,10.128671,-0.044766,-0.003997,-0.01279,26.282939
122.48639512062073,-1.705869,-3.349488,10.13705,-0.045032,-0.003464,-0.012524,26.268234
122.59706974029541,-1.703474,-3.35308,10.135853,-0.044233,-0.004263,-0.01279,26.262351
122.70388150215149,-1.704672,-3.347094,10.129868,-0.044233,-0.003997,-0.01279,26.265293
122.81434440612793,-1.708263,-3.345897,10.128671,-0.045832,-0.003198,-0.013057,26.279998
122.92490911483765,-1.703474,-3.35308,10.13346,-0.045832,-0.004263,-0.01279,26.268234
123.03208255767822,-1.711854,-3.366248,10.126276,-0.044499,-0.003997,-0.012524,26.274116
123.14192605018616,-1.70946,-3.349488,10.135853,-0.043966,-0.004263,-0.012524,26.271175
123.25249338150024,-1.703474,-3.343503,10.13346,-0.044766,-0.003997,-0.012524,26.274116
123.36291217803955,-1.715445,-3.35308,10.135853,-0.045565,-0.00453,-0.01279,26.274116
123.46994733810425,-1.705869,-3.354277,10.12508,-0.045299,-0.00373,-0.01279,26.274116
123.57985258102417,-1.704672,-3.351882,10.132262,-0.044233,-0.004263,-0.012257,26.274116
123.69008135795593,-1.710657,-3.355474,10.13346,-0.0437,-0.00373,-0.012524,26.277057
123.79722905158997,-1.693898,-3.347094,10.127473,-0.044766,-0.00373,-0.012257,26.279998
123.90812277793884,-1.702277,-3.359065,10.135853,-0.044233,-0.00453,-0.013323,26.277057
124.0181360244751,-1.702277,-3.348291,10.134656,-0.044233,-0.003997,-0.012524,26.282939
124.12512993812561,-1.705869,-3.356671,10.126276,-0.045832,-0.003198,-0.01279,26.285881
124.23552346229553,-1.705869,-3.362656,10.132262,-0.044766,-0.003997,-0.013057,26.282939
124.34609341621399,-1.70946,-3.355474,10.123883,-0.044766,-0.003464,-0.012524,26.279998
124.45293498039246,-1.702277,-3.361459,10.126276,-0.045299,-0.00373,-0.012257,26.279998
124.56348133087158,-1.71784,-3.363853,10.127473,-0.044233,-0.00373,-0.012257,26.282939
124.67395257949829,-1.704672,-3.355474,10.139445,-0.045032,-0.00373,-0.01279,26.277057
124.78012299537659,-1.714248,-3.354277,10.114306,-0.044499,-0.003464,-0.012524,26.282939
124.89107418060303,-1.705869,-3.347094,10.111911,-0.045032,-0.00373,-0.012257,26.285881
125.00111794471741,-1.703474,-3.351882,10.140642,-0.044766,-0.00373,-0.012524,26.285881
125.10860395431519,-1.703474,-3.354277,10.129868,-0.044766,-0.003997,-0.013057,26.291763
125.21897912025452,-1.707066,-3.349488,10.129868,-0.044233,-0.003997,-0.012524,26.288822
125.32909917831421,-1.710657,-3.354277,10.131065,-0.044766,-0.004796,-0.01279,26.282939
125.43608117103577,-1.691504,-3.354277,10.120291,-0.044499,-0.00373,-0.012524,26.271175
125.5464026927948,-1.705869,-3.349488,10.123883,-0.044233,-0.00453,-0.013057,26.279998
125.65624451637268,-1.703474,-3.345897,10.138248,-0.046364,-0.00453,-0.011991,26.274116
125.76407241821289,-1.704672,-3.35308,10.13346,-0.044499,-0.003997,-0.013057,26.282939
125.87389492988586,-1.702277,-3.356671,10.123883,-0.0437,-0.004796,-0.011991,26.279998
125.98511910438538,-1.711854,-3.356671,10.131065,-0.045299,-0.00373,-0.01279,26.277057
126.09144449234009,-1.704672,-3.349488,10.13705,-0.045832,-0.004263,-0.012257,26.271175
126.20200943946838,-1.705869,-3.350685,10.123883,-0.045032,-0.00453,-0.011991,26.274116
126.312087059021,-1.704672,-3.342306,10.140642,-0.043966,-0.00453,-0.012257,26.279998
126.42242908477783,-1.705869,-3.357868,10.134656,-0.043433,-0.004263,-0.011991,26.274116
126.52975964546204,-1.70108,-3.360262,10.138248,-0.046098,-0.003997,-0.012257,26.277057
126.63976812362671,-1.707066,-3.357868,10.129868,-0.046098,-0.003464,-0.012257,26.279998
126.74994325637817,-1.713051,-3.35308,10.140642,-0.044766,-0.003198,-0.011991,26.265293
126.85712718963623,-1.713051,-3.349488,10.132262,-0.045032,-0.00373,-0.013057,26.274116
126.9679787158966,-1.710657,-3.351882,10.138248,-0.044499,-0.00373,-0.01279,26.262351
127.07828569412231,-1.70108,-3.348291,10.135853,-0.0437,-0.004796,-0.012524,26.268234
127.18514966964722,-1.710657,-3.356671,10.128671,-0.046098,-0.003464,-0.012524,26.271175
127.29531478881836,-1.702277,-3.354277,10.134656,-0.045565,-0.00453,-0.01279,26.271175
127.40535807609558,-1.696292,-3.351882,10.128671,-0.044233,-0.004263,-0.011991,26.277057
127.51262211799622,-1.696292,-3.354277,10.13346,-0.045832,-0.00373,-0.012257,26.268234
127.62339735031128,-1.705869,-3.359065,10.128671,-0.046098,-0.003198,-0.012257,26.262351
127.73403477668762,-1.702277,-3.347094,10.128671,-0.043433,-0.00373,-0.011991,26.274116
127.84038996696472,-1.705869,-3.354277,10.132262,-0.043167,-0.004796,-0.012257,26.265293
127.95113348960876,-1.705869,-3.356671,10.132262,-0.044499,-0.004263,-0.012257,26.268234
128.06096816062927,-1.697489,-3.360262,10.138248,-0.045299,-0.003464,-0.01279,26.262351
128.1681308746338,-1.704672,-3.360262,10.138248,-0.044233,-0.003997,-0.01279,26.265293
128.2786364555359,-1.708263,-3.357868,10.132262,-0.043433,-0.00453,-0.01279,26.268234
128.38912200927734,-1.699883,-3.350685,10.140642,-0.043966,-0.004263,-0.012524,26.262351
128.49613046646118,-1.698686,-3.356671,10.120291,-0.045832,-0.00373,-0.01279,26.262351
128.60686373710632,-1.710657,-3.354277,10.129868,-0.045832,-0.00373,-0.012257,26.265293
128.7171597480774,-1.693898,-3.359065,10.138248,-0.043966,-0.00453,-0.011991,26.271175
128.82409858703613,-1.705869,-3.356671,10.134656,-0.044233,-0.00453,-0.01279,26.262351
128.93408250808716,-1.703474,-3.345897,10.12508,-0.046364,-0.003464,-0.01279,26.271175
129.04412245750427,-1.703474,-3.356671,10.128671,-0.045832,-0.003464,-0.012524,26.277057
129.15124368667603,-1.711854,-3.360262,10.1167,-0.043167,-0.00453,-0.011991,26.265293
129.26226615905762,-1.705869,-3.360262,10.131065,-0.0437,-0.004263,-0.011724,26.268234
129.37229013442993,-1.713051,-3.357868,10.138248,-0.045565,-0.004263,-0.012524,26.253528
129.48240661621094,-1.703474,-3.363853,10.135853,-0.045032,-0.00373,-0.013057,26.25941
129.5893280506134,-1.70946,-3.359065,10.12508,-0.043433,-0.004263,-0.011991,26.253528
129.6993532180786,-1.698686,-3.359065,10.119094,-0.043966,-0.004796,-0.012257,26.262351
129.81037878990173,-1.70946,-3.350685,10.123883,-0.045032,-0.00373,-0.013323,26.253528
129.91740369796753,-1.703474,-3.355474,10.128671,-0.045299,-0.003997,-0.01279,26.247646
130.0278115272522,-1.70946,-3.357868,10.140642,-0.044233,-0.00453,-0.011724,26.25941
130.13837957382202,-1.702277,-3.35308,10.12508,-0.044233,-0.004796,-0.012257,26.253528
130.24573421478271,-1.699883,-3.351882,10.128671,-0.045832,-0.00373,-0.012257,26.253528
130.35487627983093,-1.714248,-3.350685,10.120291,-0.045565,-0.003997,-0.01279,26.256469
130.46612763404846,-1.711854,-3.355474,10.132262,-0.043966,-0.003997,-0.011991,26.250587
130.57270693778992,-1.696292,-3.345897,10.122685,-0.044233,-0.003198,-0.01279,26.262351
130.68299794197083,-1.702277,-3.354277,10.117897,-0.045832,-0.003997,-0.012524,26.271175
130.7936933040619,-1.702277,-3.35308,10.132262,-0.045032,-0.003997,-0.011991,26.262351
130.90096020698547,-1.697489,-3.356671,10.114306,-0.044233,-0.00373,-0.012524,26.265293
131.01108932495117,-1.704672,-3.35308,10.138248,-0.045565,-0.003997,-0.013057,26.256469
131.1211290359497,-1.707066,-3.363853,10.131065,-0.045565,-0.004263,-0.012524,26.25941
131.22807550430298,-1.710657,-3.359065,10.114306,-0.043433,-0.004263,-0.01279,26.256469
131.33857321739197,-1.704672,-3.355474,10.127473,-0.044499,-0.004263,-0.012257,26.262351
131.44907999038696,-1.707066,-3.35308,10.127473,-0.045032,-0.004263,-0.012524,26.25941
131.55616354942322,-1.707066,-3.355474,10.135853,-0.044766,-0.003997,-0.012524,26.25941
131.66658329963684,-1.704672,-3.355474,10.131065,-0.044766,-0.00453,-0.011991,26.268234
131.77714228630066,-1.705869,-3.355474,10.12508,-0.044233,-0.00373,-0.011991,26.25941
131.8840732574463,-1.705869,-3.355474,10.128671,-0.045565,-0.00373,-0.012257,26.268234
131.99416637420654,-1.703474,-3.360262,10.13346,-0.045832,-0.004263,-0.01279,26.271175
132.10458660125732,-1.704672,-3.348291,10.123883,-0.044233,-0.00453,-0.012257,26.256469
132.21430253982544,-1.711854,-3.354277,10.128671,-0.044499,-0.004263,-0.013057,26.271175
132.32175040245056,-1.705869,-3.359065,10.123883,-0.045832,-0.003997,-0.01279,26.262351
132.43192291259766,-1.702277,-3.351882,10.120291,-0.045032,-0.004263,-0.013057,26.250587
132.54212594032288,-1.696292,-3.350685,10.139445,-0.044233,-0.00453,-0.012524,26.250587
132.64990162849426,-1.697489,-3.355474,10.13346,-0.045299,-0.00453,-0.012524,26.262351
132.76017904281616,-1.696292,-3.350685,10.140642,-0.046098,-0.003997,-0.012524,26.265293
132.87059950828552,-1.711854,-3.350685,10.134656,-0.044233,-0.004796,-0.011991,26.271175
132.9773232936859,-1.708263,-3.354277,10.129868,-0.043966,-0.004263,-0.011991,26.265293
133.08776307106018,-1.699883,-3.350685,10.13705,-0.045565,-0.003997,-0.012524,26.277057
133.19733142852783,-1.713051,-3.359065,10.143036,-0.045832,-0.002931,-0.012524,26.25941
133.3053593635559,-1.708263,-3.354277,10.13346,-0.043966,-0.004263,-0.012524,26.262351
133.41508197784424,-1.716643,-3.357868,10.119094,-0.044499,-0.00373,-0.012257,26.25941
133.52552151679993,-1.702277,-3.356671,10.134656,-0.045032,-0.00453,-0.01279,26.25941
133.6323847770691,-1.70108,-3.360262,10.128671,-0.044766,-0.00373,-0.01279,26.256469
133.7427215576172,-1.70108,-3.363853,10.121488,-0.044766,-0.003997,-0.01279,26.265293
133.853684425354,-1.70108,-3.357868,10.123883,-0.044766,-0.004263,-0.013057,26.25941
133.9606535434723,-1.702277,-3.355474,10.1167,-0.044766,-0.00373,-0.012524,26.25941
134.0710732936859,-1.705869,-3.355474,10.123883,-0.044766,-0.003997,-0.012524,26.262351
134.1808090209961,-1.705869,-3.360262,10.129868,-0.044766,-0.003464,-0.012524,26.265293
134.28823614120483,-1.704672,-3.355474,10.134656,-0.044766,-0.004263,-0.012524,26.262351
134.3980884552002,-1.708263,-3.355474,10.115503,-0.044499,-0.003464,-0.01279,26.262351
134.50862669944763,-1.70108,-3.363853,10.126276,-0.044766,-0.003464,-0.012257,26.247646
134.61607098579407,-1.703474,-3.350685,10.131065,-0.044499,-0.003997,-0.012524,26.262351
134.72623896598816,-1.702277,-3.349488,10.123883,-0.045032,-0.003997,-0.01279,26.253528
134.8362329006195,-1.702277,-3.359065,10.132262,-0.045299,-0.00373,-0.012257,26.262351
134.94341015815735,-1.710657,-3.354277,10.12508,-0.043966,-0.003997,-0.012524,26.25941
135.05430436134338,-1.696292,-3.354277,10.119094,-0.043433,-0.00373,-0.01279,26.256469
135.1646695137024,-1.703474,-3.357868,10.132262,-0.044499,-0.00373,-0.012524,26.256469
135.27523493766785,-1.698686,-3.356671,10.128671,-0.045832,-0.002931,-0.012524,26.253528
135.38169264793396,-1.710657,-3.361459,10.122685,-0.045032,-0.00373,-0.012524,26.268234
135.49206924438477,-1.705869,-3.357868,10.126276,-0.044233,-0.003997,-0.01279,26.256469
135.60267233848572,-1.707066,-3.359065,10.121488,-0.044499,-0.00373,-0.012524,26.262351
135.7101321220398,-1.707066,-3.357868,10.127473,-0.044766,-0.003198,-0.012257,26.25941
135.8201243877411,-1.708263,-3.360262,10.132262,-0.043966,-0.003997,-0.013057,26.262351
135.93015027046204,-1.705869,-3.356671,10.131065,-0.043966,-0.003997,-0.012257,26.25941
136.03748726844788,-1.707066,-3.35308,10.132262,-0.045565,-0.00373,-0.01279,26.256469
136.1473045349121,-1.708263,-3.348291,10.135853,-0.045032,-0.00453,-0.01279,26.256469
136.25838208198547,-1.70946,-3.356671,10.123883,-0.044499,-0.004263,-0.012524,26.253528
136.36531400680542,-1.711854,-3.354277,10.127473,-0.043966,-0.003997,-0.012257,26.25941
136.47602128982544,-1.699883,-3.35308,10.129868,-0.044499,-0.004796,-0.01279,26.262351
136.58585023880005,-1.707066,-3.355474,10.126276,-0.044499,-0.00373,-0.012257,26.256469
136.69272756576538,-1.704672,-3.361459,10.15381,-0.044499,-0.003997,-0.013323,26.25941
136.8033492565155,-1.702277,-3.351882,10.123883,-0.044499,-0.003997,-0.01279,26.265293
136.9131281375885,-1.708263,-3.356671,10.121488,-0.045032,-0.003464,-0.012257,26.250587
137.02030992507935,-1.70946,-3.359065,10.135853,-0.044499,-0.00373,-0.012524,26.253528
137.1310796737671,-1.714248,-3.361459,10.141839,-0.044766,-0.00373,-0.012257,26.262351
137.24104022979736,-1.704672,-3.355474,10.135853,-0.043966,-0.00373,-0.012257,26.268234
137.34807920455933,-1.698686,-3.359065,10.126276,-0.044766,-0.004263,-0.01279,26.265293
137.458740234375,-1.697489,-3.350685,10.128671,-0.044766,-0.00373,-0.012524,26.262351
137.5690677165985,-1.699883,-3.350685,10.121488,-0.044233,-0.004263,-0.013057,26.268234
137.6760950088501,-1.70946,-3.357868,10.132262,-0.044233,-0.003997,-0.012257,26.256469
137.7860779762268,-1.708263,-3.360262,10.13705,-0.044233,-0.004263,-0.012257,26.256469
137.8961386680603,-1.708263,-3.347094,10.129868,-0.044499,-0.003464,-0.012257,26.247646
138.0065381526947,-1.703474,-3.355474,10.127473,-0.044766,-0.00373,-0.012257,26.256469
138.11407017707825,-1.702277,-3.3447,10.13346,-0.044233,-0.003997,-0.01279,26.25941
138.22489309310913,-1.70946,-3.347094,10.132262,-0.045299,-0.003464,-0.01279,26.265293
138.33510088920593,-1.707066,-3.355474,10.132262,-0.045299,-0.004263,-0.012524,26.265293
138.442040681839,-1.70946,-3.35308,10.128671,-0.043966,-0.00373,-0.012257,26.241764
138.55233597755432,-1.708263,-3.363853,10.128671,-0.044499,-0.003464,-0.012257,26.25941
138.66193175315857,-1.708263,-3.357868,10.129868,-0.045299,-0.003198,-0.012524,26.256469
138.768967628479,-1.708263,-3.351882,10.123883,-0.045032,-0.003997,-0.013057,26.25941
138.880126953125,-1.714248,-3.356671,10.132262,-0.043966,-0.00453,-0.01279,26.250587
138.99009919166565,-1.697489,-3.350685,10.127473,-0.044766,-0.004263,-0.013057,26.256469
139.09736347198486,-1.708263,-3.35308,10.129868,-0.045565,-0.00373,-0.012257,26.253528
139.2073109149933,-1.705869,-3.355474,10.119094,-0.044233,-0.00453,-0.012257,26.256469
139.31834268569946,-1.704672,-3.354277,10.135853,-0.044499,-0.00373,-0.01279,26.25941
139.42513179779053,-1.703474,-3.35308,10.131065,-0.044499,-0.004263,-0.012524,26.253528
139.53513264656067,-1.70108,-3.354277,10.122685,-0.044499,-0.003464,-0.01279,26.253528
139.64513850212097,-1.707066,-3.355474,10.135853,-0.044499,-0.003464,-0.01279,26.256469
139.7528111934662,-1.710657,-3.359065,10.13705,-0.043433,-0.003464,-0.012524,26.268234
139.86324977874756,-1.702277,-3.361459,10.119094,-0.045032,-0.004263,-0.01279,26.253528
139.97379636764526,-1.699883,-3.355474,10.128671,-0.045299,-0.00453,-0.01279,26.262351
140.08086585998535,-1.719037,-3.357868,10.126276,-0.044766,-0.003997,-0.012524,26.250587
140.19081354141235,-1.704672,-3.355474,10.13705,-0.044499,-0.004263,-0.012524,26.253528
140.30130672454834,-1.710657,-3.360262,10.134656,-0.044233,-0.00453,-0.01279,26.256469
140.4079773426056,-1.703474,-3.361459,10.135853,-0.044766,-0.00373,-0.01359,26.256469
140.51841187477112,-1.697489,-3.345897,10.131065,-0.044766,-0.00373,-0.012257,26.265293
140.6283140182495,-1.707066,-3.361459,10.111911,-0.045565,-0.00373,-0.012524,26.25941
140.7358102798462,-1.719037,-3.357868,10.120291,-0.0437,-0.004263,-0.012524,26.256469
140.84619450569153,-1.70946,-3.355474,10.129868,-0.045032,-0.003997,-0.012257,26.253528
140.95684790611267,-1.707066,-3.355474,10.138248,-0.044766,-0.00373,-0.012524,26.25941
141.06308388710022,-1.704672,-3.354277,10.126276,-0.044499,-0.003997,-0.012257,26.250587
141.17384338378906,-1.70108,-3.351882,10.13705,-0.044233,-0.00453,-0.012524,26.25941
141.28440833091736,-1.704672,-3.35308,10.140642,-0.045565,-0.003198,-0.01279,26.25941
141.39413166046143,-1.711854,-3.357868,10.135853,-0.045832,-0.00373,-0.01279,26.25941
141.50185322761536,-1.705869,-3.357868,10.131065,-0.044233,-0.003997,-0.012524,26.250587
141.6121301651001,-1.708263,-3.355474,10.117897,-0.043966,-0.004263,-0.011991,26.268234
141.72291159629822,-1.705869,-3.349488,10.132262,-0.045299,-0.004263,-0.012524,26.262351
141.82943534851074,-1.699883,-3.350685,10.13346,-0.045032,-0.00373,-0.01279,26.253528
141.9398591518402,-1.703474,-3.356671,10.138248,-0.044499,-0.004263,-0.012524,26.256469
142.05007338523865,-1.705869,-3.3447,10.122685,-0.044233,-0.003464,-0.013057,26.256469
142.15701961517334,-1.697489,-3.343503,10.128671,-0.044499,-0.00373,-0.01279,26.265293
142.26747012138367,-1.704672,-3.359065,10.132262,-0.044233,-0.003997,-0.012257,26.271175
142.3779969215393,-1.703474,-3.357868,10.135853,-0.044499,-0.004263,-0.01279,26.268234
142.48552751541138,-1.708263,-3.354277,10.122685,-0.044766,-0.003997,-0.01279,26.262351
142.59544825553894,-1.702277,-3.356671,10.127473,-0.044766,-0.004263,-0.012524,26.274116
142.70583939552307,-1.705869,-3.351882,10.123883,-0.044766,-0.00373,-0.012524,26.256469
142.81246638298035,-1.710657,-3.351882,10.132262,-0.044766,-0.003997,-0.012524,26.262351
142.92291378974915,-1.704672,-3.355474,10.135853,-0.044233,-0.00373,-0.01279,26.25941
143.03345131874084,-1.711854,-3.356671,10.123883,-0.045299,-0.00373,-0.011991,26.277057
143.14048194885254,-1.703474,-3.347094,10.126276,-0.045299,-0.003198,-0.012524,26.262351
143.25089621543884,-1.713051,-3.350685,10.126276,-0.044499,-0.002931,-0.012257,26.25941
143.36146140098572,-1.697489,-3.35308,10.131065,-0.044233,-0.004263,-0.012257,26.262351
143.46791315078735,-1.697489,-3.365051,10.128671,-0.044766,-0.00453,-0.01279,26.25941
143.5784788131714,-1.705869,-3.350685,10.141839,-0.045032,-0.00373,-0.012524,26.256469
143.68889904022217,-1.710657,-3.349488,10.131065,-0.044766,-0.004263,-0.012524,26.265293
143.796138048172,-1.702277,-3.35308,10.138248,-0.044233,-0.004796,-0.012524,26.25941
143.906019449234,-1.699883,-3.349488,10.139445,-0.044499,-0.004263,-0.012524,26.256469
144.0168707370758,-1.705869,-3.354277,10.127473,-0.045032,-0.003464,-0.012524,26.262351
144.12739157676697,-1.698686,-3.360262,10.127473,-0.044766,-0.004263,-0.012524,26.256469
144.23392605781555,-1.695095,-3.357868,10.121488,-0.043966,-0.003997,-0.01279,26.262351
144.34440517425537,-1.70108,-3.355474,10.141839,-0.044766,-0.004263,-0.01279,26.262351
144.45411562919617,-1.707066,-3.360262,10.123883,-0.044766,-0.004263,-0.012257,26.244705
144.56133556365967,-1.705869,-3.351882,10.13705,-0.044499,-0.004263,-0.01279,26.253528
144.67207527160645,-1.698686,-3.35308,10.144233,-0.044499,-0.00453,-0.012257,26.25941
144.78208780288696,-1.713051,-3.351882,10.123883,-0.045032,-0.003997,-0.012524,26.247646
144.8895182609558,-1.705869,-3.35308,10.141839,-0.045299,-0.004263,-0.013057,26.253528
145.00007605552673,-1.703474,-3.343503,10.135853,-0.044766,-0.003198,-0.011991,26.250587
145.1101450920105,-1.707066,-3.348291,10.128671,-0.043966,-0.00453,-0.012524,26.256469
145.21717047691345,-1.708263,-3.369839,10.132262,-0.044233,-0.003997,-0.012524,26.262351
145.32719469070435,-1.708263,-3.360262,10.135853,-0.045299,-0.003997,-0.012524,26.253528
145.4377257823944,-1.703474,-3.35308,10.135853,-0.044233,-0.003997,-0.012524,26.250587
145.54475021362305,-1.698686,-3.347094,10.128671,-0.044499,-0.00453,-0.01279,26.247646
145.65528082847595,-1.702277,-3.366248,10.131065,-0.044499,-0.003997,-0.01279,26.247646
145.765305519104,-1.702277,-3.35308,10.131065,-0.045299,-0.003997,-0.011991,26.256469
145.8723340034485,-1.697489,-3.357868,10.126276,-0.045299,-0.003198,-0.012524,26.256469
145.9823591709137,-1.696292,-3.35308,10.134656,-0.044766,-0.004263,-0.01279,26.25941
146.0933837890625,-1.703474,-3.361459,10.119094,-0.045032,-0.00373,-0.012524,26.274116
146.2000708580017,-1.70946,-3.35308,10.143036,-0.043966,-0.00373,-0.01279,26.262351
146.31114840507507,-1.693898,-3.357868,10.134656,-0.044766,-0.00453,-0.01279,26.25941
146.42113614082336,-1.703474,-3.347094,10.131065,-0.044766,-0.00453,-0.01279,26.25941
146.52799677848816,-1.708263,-3.35308,10.122685,-0.044233,-0.004263,-0.012524,26.268234
146.63819670677185,-1.704672,-3.351882,10.140642,-0.044766,-0.003997,-0.013323,26.279998
146.74914073944092,-1.697489,-3.35308,10.132262,-0.044766,-0.003997,-0.012524,26.271175
146.85595083236694,-1.70946,-3.354277,10.139445,-0.045299,-0.003997,-0.012257,26.279998
146.96608114242554,-1.711854,-3.349488,10.129868,-0.044766,-0.003464,-0.01279,26.265293
147.07656407356262,-1.70946,-3.360262,10.127473,-0.045032,-0.003464,-0.012257,26.265293
147.18706488609314,-1.699883,-3.366248,10.139445,-0.044766,-0.003198,-0.012257,26.265293
147.29408383369446,-1.70946,-3.361459,10.122685,-0.044499,-0.003997,-0.012524,26.268234
147.40457439422607,-1.70946,-3.345897,10.13705,-0.044499,-0.00373,-0.012524,26.265293
147.514995098114,-1.707066,-3.351882,10.14543,-0.045299,-0.003464,-0.01279,26.268234
147.62114000320435,-1.707066,-3.356671,10.132262,-0.044766,-0.003997,-0.01279,26.265293
147.73199009895325,-1.705869,-3.359065,10.129868,-0.044499,-0.003997,-0.012257,26.256469
147.84259033203125,-1.707066,-3.354277,10.12508,-0.044766,-0.003997,-0.01279,26.250587
147.9498851299286,-1.699883,-3.362656,10.122685,-0.045032,-0.004263,-0.013057,26.256469
148.06007838249207,-1.697489,-3.350685,10.126276,-0.044766,-0.003464,-0.01279,26.256469
148.1700782775879,-1.705869,-3.354277,10.12508,-0.044766,-0.00373,-0.011724,26.256469
148.27704095840454,-1.708263,-3.351882,10.120291,-0.044499,-0.003997,-0.01279,26.262351
148.38714170455933,-1.703474,-3.361459,10.13346,-0.044499,-0.00453,-0.013057,26.253528
148.4978370666504,-1.702277,-3.35308,10.134656,-0.044499,-0.004263,-0.012257,26.262351
148.6046223640442,-1.699883,-3.355474,10.129868,-0.044499,-0.003464,-0.012257,26.250587
148.71509265899658,-1.70946,-3.35308,10.144233,-0.045032,-0.003997,-0.01279,26.253528
148.82493686676025,-1.70108,-3.359065,10.141839,-0.044766,-0.003997,-0.01279,26.25941
148.93290877342224,-1.704672,-3.350685,10.131065,-0.043966,-0.00453,-0.01279,26.247646
149.04305267333984,-1.711854,-3.351882,10.127473,-0.044233,-0.00453,-0.01279,26.250587
149.1532280445099,-1.70108,-3.35308,10.123883,-0.044233,-0.004263,-0.012257,26.253528
149.2601363658905,-1.705869,-3.367445,10.126276,-0.045299,-0.00373,-0.012524,26.256469
149.37089014053345,-1.707066,-3.348291,10.132262,-0.045032,-0.003198,-0.01279,26.244705
149.48100924491882,-1.70108,-3.356671,10.144233,-0.044766,-0.004263,-0.01279,26.256469
149.58823561668396,-1.708263,-3.363853,10.126276,-0.045032,-0.004263,-0.012257,26.256469
149.6989278793335,-1.708263,-3.360262,10.143036,-0.044499,-0.004263,-0.011991,26.256469
149.80930924415588,-1.702277,-3.351882,10.128671,-0.045032,-0.00373,-0.013057,26.253528
149.91615390777588,-1.702277,-3.356671,10.13346,-0.045299,-0.00373,-0.012524,26.244705
150.02608251571655,-1.708263,-3.35308,10.131065,-0.044766,-0.003997,-0.01279,26.256469
150.13636803627014,-1.704672,-3.356671,10.143036,-0.044766,-0.00453,-0.01279,26.25941
150.2467761039734,-1.702277,-3.360262,10.121488,-0.044499,-0.003997,-0.012524,26.253528
150.35406947135925,-1.703474,-3.351882,10.134656,-0.044766,-0.00453,-0.011991,26.253528
150.46423196792603,-1.698686,-3.355474,10.13705,-0.044499,-0.003997,-0.012257,26.268234
150.5741605758667,-1.703474,-3.356671,10.128671,-0.044499,-0.004263,-0.012524,26.262351
150.68213987350464,-1.707066,-3.359065,10.127473,-0.045032,-0.003997,-0.012524,26.256469
150.79225492477417,-1.703474,-3.360262,10.132262,-0.045299,-0.00373,-0.012524,26.25941
150.9023585319519,-1.710657,-3.351882,10.139445,-0.043966,-0.004263,-0.012257,26.25941
151.00907468795776,-1.699883,-3.342306,10.139445,-0.0437,-0.004796,-0.012524,26.268234
151.11912393569946,-1.703474,-3.349488,10.146627,-0.044766,-0.00373,-0.012524,26.25941
151.22980642318726,-1.703474,-3.355474,10.129868,-0.045299,-0.003997,-0.012524,26.247646
151.3371183872223,-1.708263,-3.354277,10.141839,-0.045032,-0.00373,-0.012524,26.25941
151.447687625885,-1.699883,-3.355474,10.127473,-0.044499,-0.003997,-0.01279,26.250587
151.55810832977295,-1.710657,-3.356671,10.132262,-0.044499,-0.00373,-0.012524,26.25941
151.66506958007812,-1.708263,-3.351882,10.132262,-0.045032,-0.004263,-0.01279,26.253528
151.77518558502197,-1.698686,-3.356671,10.13705,-0.044499,-0.004263,-0.012524,26.262351
151.8853404521942,-1.70946,-3.351882,10.13346,-0.044233,-0.003997,-0.012524,26.265293
151.99195408821106,-1.703474,-3.355474,10.135853,-0.044766,-0.00373,-0.011991,26.256469
